Time (s),Acceleration x (m/s^2),Acceleration y (m/s^2),Acceleration z (m/s^2),Absolute acceleration (m/s^2)
9.89167E-05,-0.927621002,-0.074694672,9.587113495,9.632175517
0.010148917,-0.953217773,-0.05852829,9.781259766,9.827771481
0.020199917,-0.923130341,-0.095351715,9.822274475,9.866019331
0.030249917,-0.932860107,-0.139509888,9.726024628,9.771655236
0.040299917,-0.943338318,-0.189206543,9.58890976,9.63705747
0.050349917,-0.881965942,-0.168699188,9.486822052,9.529224312
0.060399917,-0.83900528,-0.123044128,9.465715942,9.503622889
0.070449917,-0.836909637,-0.09131012,9.488468628,9.525743655
0.080499917,-0.887953491,-0.080981598,9.535171509,9.576769556
0.090549917,-0.931063843,-0.073646851,9.607022095,9.652314607
0.100600917,-0.917442169,-0.070353699,9.689799957,9.733389594
0.110650917,-0.927770691,-0.082328796,9.788295135,9.832510267
0.120700917,-0.983305206,-0.088765411,9.899214478,9.948327281
0.130750917,-0.949176178,-0.096549225,9.989177399,10.03463613
0.140800917,-0.897533569,-0.110170898,10.02525238,10.06595199
0.150850917,-0.899030457,-0.154927826,10.01387604,10.05534543
0.160900917,-0.882564697,-0.21644989,9.965825958,10.00717033
0.170950917,-0.86355423,-0.277822266,9.848919067,9.89060756
0.181001917,-0.910257111,-0.275277557,9.617949371,9.664848465
0.191051917,-1.003662872,-0.156424713,9.572444,9.626187822
0.201102083,-1.009650421,-0.042810974,9.621841278,9.67476389
0.211152083,-0.952918396,-0.054786072,9.532028046,9.579697993
0.221202083,-0.94663147,-0.207318878,9.401499481,9.451311272
0.231252083,-0.888252869,-0.322429504,9.384884033,9.432338112
0.241302083,-0.792452087,-0.373772736,9.495354309,9.535692939
0.251352083,-0.616418152,-0.341739349,9.627978516,9.653741628
0.261403083,-0.401165771,-0.336649933,9.639354858,9.653570803
0.271453083,-0.161364441,-0.271235962,9.843230896,9.848289288
0.281503083,0.019160156,-0.272882538,10.07734406,10.08105625
0.291553083,-0.020357666,-0.344733124,10.16102005,10.16688663
0.301603083,-0.002844086,-0.375419312,10.23541534,10.24229833
0.311653083,0.044307861,-0.422122192,10.27134064,10.28010646
0.321703083,0.01047821,-0.511186981,10.24978546,10.26253009
0.331753083,-0.015867004,-0.608784027,10.24694138,10.26502203
0.341804083,-0.045505371,-0.726289673,10.13123199,10.15733376
0.351854083,-0.051642609,-0.859512634,9.965825958,10.00295536
0.361904083,-0.060474243,-1.067879333,9.919422455,9.976921632
0.371954083,-0.091459808,-1.288071442,9.921518097,10.00519936
0.382004083,-0.108075256,-1.535656586,9.670340424,9.79210934
0.392054083,-0.233364716,-1.778152313,9.362281036,9.53250182
0.402104083,-0.338595886,-1.924547882,9.198521576,9.403793432
0.412154083,-0.426912231,-1.976489868,9.275162201,9.493018493
0.422205083,-0.398022308,-1.872605896,9.513017578,9.703740415
0.432255083,-0.486488342,-1.709295502,9.769284668,9.929616556
0.442305083,-0.239501953,-1.521735535,10.03947281,10.15697073
0.452355083,0.116457825,-1.14077774,10.22688309,10.29097051
0.462405083,0.063767395,-0.873134308,10.28301636,10.32021585
0.472455083,-0.171243896,-0.666563873,10.14620087,10.16951444
0.482505083,-0.5932164,-0.568368073,9.838440857,9.87268284
0.492555083,-1.037791901,-0.539627838,9.456435242,9.528503435
0.502606083,-1.500479736,-0.522563324,9.130413208,9.267629536
0.512656083,-1.67441803,-0.494122467,8.871152344,9.041303925
0.522706083,-1.284179535,-0.23171814,8.743767242,8.840603823
0.532756083,-1.019380188,0.067359924,8.816066895,8.87506106
0.542806083,-0.745599518,0.274379425,8.952133942,8.987319112
0.552856083,-0.581690369,0.379909973,9.110055542,9.136509577
0.562906083,-0.561033325,0.3556604,9.34776123,9.371333562
0.572956083,-0.641865234,0.264499969,9.595046997,9.620128798
0.583007083,-0.744102631,0.13217514,9.784852295,9.813994774
0.593057083,-0.870439911,-0.057929535,9.896520081,9.934894623
0.603107083,-0.973874817,-0.307909698,9.941875763,9.994205032
0.613157083,-0.920286255,-0.511935425,9.92930191,9.984990791
0.623207083,-0.810265045,-0.693507843,9.877359924,9.934773357
0.633257083,-0.722248077,-0.857866058,9.882449341,9.945872583
0.643307083,-0.616418152,-0.963097229,9.864337006,9.93039134
0.653357083,-0.546064453,-1.043031006,9.805659027,9.876084701
0.663408083,-0.51253418,-1.102008362,9.804910583,9.879948647
0.673458083,-0.412093048,-1.084494781,9.798473969,9.866916526
0.683508083,-0.282761993,-0.96414505,9.874216461,9.925204318
0.693558083,-0.128582611,-0.892593842,9.962832184,10.00356348
0.703608083,-0.00703537,-0.919537811,10.11147308,10.15320084
0.713658083,0.049846344,-1.024020538,10.21490799,10.26622852
0.723708083,-0.018561401,-1.141675873,10.16655853,10.23047803
0.733758083,-0.130528564,-1.24032074,10.00983444,10.08723048
0.743809083,-0.254770203,-1.289718018,9.849517822,9.936864785
0.753859083,-0.301772461,-1.279838562,9.743388519,9.831717714
0.763909083,-0.367336121,-1.185085602,9.69069809,9.769800058
0.773959083,-0.43649231,-1.058149567,9.720486145,9.787648182
0.784009083,-0.31823822,-0.953068085,9.737850037,9.789552476
0.794059083,-0.346679077,-0.927022247,9.799821167,9.849672661
0.804109083,-0.67509613,-1.013542328,9.876761169,9.951554353
0.814159083,-0.502505035,-1.104104004,9.961634674,10.03522408
0.824210083,-0.048199768,-0.845591583,10.0183667,10.05410462
0.834260083,-0.006735992,-0.760718079,10.14260834,10.17109833
0.844310083,-0.192050629,-0.908909912,10.10353958,10.14615754
0.854360083,-0.46687912,-1.045875092,10.04052063,10.10563632
0.864410083,-0.556842041,-1.051114197,10.00549347,10.07595225
0.874460083,-0.472417603,-1.016236725,9.855954437,9.91946336
0.884510083,-0.315693512,-0.978066101,9.661808167,9.71631683
0.894560083,-0.186961212,-0.990939331,9.516909485,9.570187114
0.904611083,-0.12289444,-0.981059875,9.407037964,9.458855363
0.914661083,-0.179626465,-0.958157501,9.344917145,9.395627063
0.924711083,-0.204923859,-0.934207306,9.222322083,9.27178309
0.934761083,-0.14160553,-0.877026215,9.144034882,9.187088822
0.944811083,-0.084873505,-0.90097641,9.179960175,9.224458294
0.954861083,-0.073497162,-0.966689758,9.301507416,9.351894521
0.964911083,-0.131426697,-0.993334351,9.383237457,9.436584726
0.974961083,-0.241747284,-0.965941315,9.575437775,9.62707084
0.985012083,-0.37437149,-0.890947266,9.817185059,9.864637019
0.995062083,-0.520916748,-0.787811737,10.01582199,10.06025307
1.005112083,-0.596210175,-0.692609711,10.14934433,10.19040554
1.015162083,-0.614172821,-0.605640564,10.17568954,10.21218226
1.025212083,-0.55818924,-0.591719513,10.13602203,10.16861101
1.035262083,-0.506846008,-0.653690643,10.09366013,10.12749619
1.045312083,-0.417781219,-0.769699402,9.994266815,10.03256435
1.055362083,-0.295635223,-0.830023956,9.910291443,9.949382716
1.065413083,-0.167801056,-0.83421524,9.904004517,9.940491825
1.075463083,-0.130229187,-0.833915863,9.983339539,10.01895422
1.085513083,-0.146096191,-0.849633179,10.1138681,10.15054425
1.095563083,-0.186212769,-0.842298431,10.16476227,10.20130059
1.105613083,-0.255967712,-0.830323334,10.11311966,10.15037662
1.115663083,-0.298778687,-0.80622345,10.02420456,10.06101098
1.125713083,-0.37676651,-0.765957184,9.936037903,9.972637195
1.135763083,-0.48559021,-0.746647339,9.882149963,9.922205803
1.145814083,-0.579894104,-0.734223175,9.864486694,9.908756662
1.155864083,-0.611328735,-0.716559906,9.84158432,9.88655465
1.165914083,-0.602347412,-0.742755432,9.834848328,9.881232194
1.175964083,-0.578846283,-0.771795044,9.80416214,9.851513887
1.186014083,-0.536634064,-0.828078003,9.760003967,9.80975875
1.196064083,-0.454754333,-0.897383881,9.660311279,9.712554419
1.206114167,-0.323028259,-0.941242676,9.545649719,9.597380559
1.216164167,-0.368982697,-1.044527893,9.557175751,9.621163915
1.226215167,-0.612526245,-1.263821869,9.605525208,9.707654126
1.236265167,-0.047002258,-1.162931671,9.635762329,9.705799037
1.246315167,0.16735199,-0.867446136,9.737550659,9.777543778
1.256365167,0.165705414,-0.778980103,9.693542175,9.726203174
1.266415167,0.029338989,-0.742755432,9.655072174,9.683644205
1.276465167,-0.073497162,-0.719104614,9.525441742,9.552829615
1.286515167,-0.06556366,-0.679886169,9.371412048,9.39627094
1.296565167,-0.031434631,-0.621956635,9.305848389,9.326662448
1.306615167,-0.059426422,-0.608634338,9.292376404,9.312476925
1.316666167,-0.113164673,-0.604143677,9.334588623,9.354803076
1.326716167,-0.194894714,-0.617016907,9.38054306,9.402833718
1.336766167,-0.248483276,-0.634081421,9.412576447,9.437181706
1.346816167,-0.24219635,-0.643811188,9.396410065,9.421553695
1.356866167,-0.195643158,-0.632584534,9.352850647,9.376260164
1.366916167,-0.152383118,-0.623303833,9.328900452,9.350941766
1.376966167,-0.115410004,-0.63423111,9.325906677,9.348160457
1.387016167,-0.118703156,-0.62135788,9.390721893,9.412004767
1.397067167,-0.181722107,-0.618064728,9.520801392,9.542572298
1.407117167,-0.262554016,-0.628542938,9.697284393,9.721179221
1.417167167,-0.361348572,-0.67509613,9.835447083,9.865208913
1.427217167,-0.224982147,-0.702788544,9.862840118,9.89040666
1.437267167,-0.60025177,-0.902323608,9.992320862,10.05091868
1.447317167,-0.677640839,-1.019529877,10.17015106,10.24356436
1.457367167,-0.569565582,-0.988993378,10.30756531,10.37055521
1.467417167,-0.482746124,-0.979562988,10.43255539,10.48955668
1.477468167,-0.481997681,-1.006656647,10.4880899,10.54730815
1.487518167,-0.509540405,-1.080752563,10.43974045,10.50789409
1.497568167,-0.522114258,-1.186732178,10.23152344,10.31334128
1.507618167,-0.576600952,-1.299447784,9.962981873,10.0638979
1.517668167,-0.632135468,-1.39000946,9.689201202,9.808788992
1.527718167,-0.566571808,-1.414708099,9.543703766,9.664609883
1.537768167,-0.385448456,-1.406175842,9.485774231,9.597177386
1.547818167,-0.212408295,-1.400188293,9.374106445,9.480480799
1.557869167,-0.045954437,-1.404529266,9.302854614,9.408396157
1.567919167,0.144599304,-1.378034363,9.362879791,9.464851063
1.577969167,0.289348297,-1.306483154,9.468410339,9.562500459
1.588019167,0.388741608,-1.294508057,9.591903534,9.686665296
1.598069167,0.368234253,-1.356628876,9.715995483,9.817158785
1.608119167,0.247136078,-1.464404755,9.778565369,9.890697559
1.618169167,0.085621948,-1.53041748,9.865983582,9.984344786
1.628219167,-0.028141479,-1.48251709,9.973011017,10.08263842
1.638269167,-0.063767395,-1.408271484,10.13362701,10.23121163
1.648320167,-0.060025177,-1.394200745,10.20607635,10.30103846
1.658370167,-0.121098175,-1.410816193,10.19455032,10.29242068
1.668420167,-0.116008759,-1.40527771,10.14515305,10.24267513
1.678470167,-0.093256073,-1.323547668,10.06327332,10.15036674
1.688520167,-0.108524323,-1.260528717,9.983040161,10.06289228
1.698570167,-0.103734283,-1.182091827,9.943522339,10.01407701
1.708620167,-0.191451874,-0.994831238,9.946516113,9.997976085
1.718670167,-0.374072113,-1.081650696,9.992919617,10.05824739
1.728721167,-0.462089081,-1.425485687,9.957593079,10.06971676
1.738771167,-0.312100983,-1.512454834,9.610015869,9.733310416
1.748821167,0.013921051,-1.699865112,9.402397614,9.55483208
1.758871167,0.179626465,-1.624421997,9.153165894,9.297927638
1.768921167,-0.00703537,-1.690135345,9.06230484,9.218566917
1.778971167,-0.132324829,-1.78668457,8.981921997,9.1588577
1.789021167,-0.070353699,-1.750609589,8.65515152,8.83069824
1.799071167,0.272283783,-1.621877289,8.48315918,8.641100281
1.809122167,0.715212708,-1.381028137,8.540639648,8.681088269
1.819172167,0.905467072,-1.306034088,8.522377625,8.669285786
1.829222167,1.473685455,-1.2753479,8.562494202,8.781490081
1.839272167,1.677262115,-1.349294128,8.793613586,9.05325592
1.849322167,1.560355225,-1.524729309,8.771908722,9.039131071
1.859372167,1.837279358,-1.609752502,9.232051849,9.549747636
1.869422167,1.715432739,-1.699865112,9.404942322,9.710056177
1.879472167,1.731599121,-1.776356049,9.695488129,10.00781527
1.889522167,1.614093475,-1.848805389,9.923913116,10.22288759
1.899573167,1.429227905,-1.896556091,10.063423,10.33983075
1.909623167,1.312171326,-1.889221344,10.1577269,10.41491078
1.919673167,1.164578247,-1.887425079,10.1484462,10.38795341
1.929723167,1.003064117,-1.93532547,10.147099,10.3785953
1.939773167,0.950373688,-2.037562866,10.06686584,10.31487569
1.949823167,0.949026489,-2.095342712,9.923014984,10.18613463
1.959873167,0.992735596,-2.099983063,9.840536499,10.11096491
1.969923167,1.098415833,-2.055974579,9.733209686,10.00844242
1.979974167,1.325493622,-1.987117767,9.587562561,9.880633898
1.990024167,1.598825226,-1.89550827,9.375753021,9.698140978
2.000074167,1.906435547,-1.755399628,9.15825531,9.517855046
2.010124167,2.202968903,-1.57607254,9.040749664,9.437808598
2.020174167,2.466720428,-1.423240356,9.010213165,9.449564226
2.030224167,2.678829346,-1.321302338,9.1278685,9.604163154
2.040274167,2.803819427,-1.235081635,9.270222473,9.763393607
2.050324167,2.768792267,-1.225501556,9.42619812,9.900569462
2.060374167,2.709665222,-1.202150116,9.575587463,10.02393764
2.070425167,2.690804443,-1.17939743,9.62049408,10.05909107
2.080475167,2.666554871,-1.107247467,9.591005402,10.01618173
2.090525167,2.710563354,-1.03554657,9.470056915,9.904619547
2.100575167,2.813848572,-0.956361237,9.20974823,9.677387719
2.110625167,2.988984375,-0.885109406,8.982371063,9.507914397
2.120675167,3.240611115,-0.834813995,8.929231567,9.535704022
2.130725167,3.383563843,-0.774489441,8.806486816,9.465862254
2.140775167,3.456312561,-0.699495392,8.568930817,9.266173194
2.150826167,3.552113342,-0.710722046,8.56623642,9.300701125
2.160876167,3.511697388,-0.996028748,8.480464783,9.232679716
2.170926167,3.531156921,-1.462009735,8.344397736,9.177990806
2.180976167,3.538940735,-1.654659119,8.436755676,9.297356864
2.191026167,3.03404068,-1.712738342,8.403225403,9.096871586
2.201076167,2.525248718,-1.005758514,7.945327606,8.397419964
2.211125292,2.824775848,0.282911682,7.312294006,7.844044955
2.221175292,2.89123764,0.384101257,7.229516144,7.795684225
2.231225292,2.723885651,-0.102836151,7.591613159,8.066146457
2.241276292,2.893932037,-0.371826782,7.606881409,8.147253682
2.251326292,3.434607697,-0.550555115,7.670349426,8.422226623
2.261376292,4.242178345,-0.577648773,7.958649902,9.037138014
2.271426292,4.526586914,-0.816252594,8.165220337,9.371610349
2.281476292,4.639003143,-0.885109406,8.50651062,9.729567912
2.291526292,4.563410339,-0.860111389,8.770262146,9.923809936
2.301576292,4.547094269,-1.078357544,8.90902359,10.06029933
2.311626292,4.568948822,-1.569486237,8.976383514,10.19382369
2.321677292,4.949607239,-2.17871933,9.526489563,10.95442528
2.331727292,5.795198822,-2.648592224,10.09440857,11.93718788
2.341777292,6.879094849,-2.770588531,10.09650421,12.52746998
2.351827292,7.999215546,-2.674488373,9.708960114,12.86095812
2.361877292,8.949439545,-2.54725296,9.056916046,12.98494105
2.371927292,9.433832245,-2.766247559,8.408165131,12.93624974
2.381977292,9.745184784,-2.954406281,7.960745544,12.92557978
2.392027292,10.3156485,-2.663561096,7.646249542,13.11382071
2.402077292,10.83102676,-2.36702774,7.601492615,13.44234544
2.412128292,10.79240707,-2.194286957,8.531209259,13.93098981
2.422178292,10.62759979,-1.922003174,10.0077388,14.72395359
2.432228292,10.54437286,-2.633323975,10.56802368,15.15919915
2.442278292,9.733059998,-3.474574585,10.90437424,15.02366476
2.452328292,8.805139618,-3.64477066,11.22530685,14.72488882
2.462378292,8.436905365,-3.510499878,10.90721832,14.22927943
2.472428292,7.882608032,-3.562441864,10.41085052,13.53559419
2.482478292,6.929539948,-3.884272614,9.775870972,12.59657695
2.492529292,6.553521881,-4.177063751,8.917705536,11.82886227
2.502579292,6.974296875,-4.087400208,8.224646759,11.5322362
2.512629292,7.329059143,-3.984264679,8.473429413,11.89068875
2.522679292,7.518714752,-4.056863708,10.81905167,13.78553929
2.532729292,8.468040619,-4.518803101,13.50147354,16.56553896
2.542779292,9.24013504,-6.039640503,12.54107071,16.70735789
2.552829292,9.659263458,-7.277715912,10.25801834,15.85854532
2.562879292,9.783205719,-7.8219841,9.879156189,15.95281406
2.572929292,9.056766357,-7.297025757,9.815987549,15.21923826
2.582980292,7.782017212,-6.015241241,12.22642502,15.69166619
2.593030292,7.967182159,-4.845573578,14.16998337,16.9630187
2.603080292,7.755522308,-4.836143188,15.59097839,18.07249331
2.613130292,6.534361725,-5.77783493,14.30919388,16.75811114
2.623180292,5.601651306,-5.991889801,12.37416779,14.84591759
2.633230292,4.449497223,-5.74744812,11.23832977,13.38399199
2.643280292,3.000660095,-5.494324493,10.35576508,12.10096826
2.653330292,1.980531464,-5.468278656,9.021290131,10.7335107
2.663381292,1.193767548,-4.853058014,8.372090149,9.75034084
2.673431292,0.83196991,-3.977378998,7.981851654,8.95665526
2.683481292,-0.595312042,-2.905757446,7.781268768,8.327422555
2.693531292,-2.271526337,-2.146536255,6.509363708,7.220752432
2.703581292,-2.118095398,-1.567540283,5.425018616,6.031114129
2.713631292,-0.505049744,-0.794697418,5.624403992,5.702678274
2.723681292,0.798140259,-0.720900879,6.482419739,6.571034288
2.733731292,1.504221954,-1.330882416,6.549629974,6.85066307
2.743781292,1.694176941,-1.906136169,5.781277771,6.318762796
2.753832292,1.505718842,-2.404000854,5.439239044,6.134470696
2.763882292,1.638492737,-2.474803619,5.713618469,6.438536124
2.773932292,1.82650177,-2.46417572,5.615123291,6.398271663
2.783982292,1.520837402,-3.012036438,5.330115967,6.308363189
2.794032292,0.646206207,-3.477119293,6.080655212,7.034366272
2.804082292,-0.428708496,-3.933669891,7.519463196,8.49705105
2.814132292,-0.944984894,-4.307742004,8.74406662,9.793280282
2.824182292,-0.540975037,-4.146078186,9.961185608,10.80314015
2.834232292,0.731379089,-3.720064087,11.76328812,12.3591561
2.844283292,2.099983063,-2.532882843,12.82757492,13.24281325
2.854333292,2.65607666,-1.052162018,13.48291214,13.78226062
2.864383292,2.283052368,-0.07604187,13.63364868,13.82369295
2.874433292,0.862506409,-0.165555725,12.6009462,12.631515
2.884483292,-0.534388733,-0.780177612,11.16468292,11.20465944
2.894533292,-1.004710693,-1.356778564,10.48674271,10.62177312
2.904583292,-0.864602051,-1.4837146,10.49557434,10.63513171
2.914633292,0.062270508,-1.521286469,10.50425629,10.61402799
2.924683292,1.431173859,-1.517394562,10.39109161,10.59837392
2.934734292,2.858006744,-1.021326141,9.82047821,10.27876947
2.944784292,3.299289093,-0.131127319,9.583371277,10.13624723
2.954834292,2.776276703,0.041912842,10.08812164,10.46325319
2.964884292,0.702938232,-0.17663269,9.60762085,9.634920843
2.974934292,-1.065484314,-0.450263672,8.655750275,8.732697579
2.984984292,-2.64440094,-1.404229889,7.424859924,8.005826804
2.995034292,-2.884950714,-2.107617188,6.511309662,7.427122212
3.005084292,-1.499880981,-1.61124939,6.837032318,7.182672098
3.015135292,-0.339194641,-0.839604034,6.817722473,6.877596067
3.025185292,1.357227631,-0.93375824,5.448519745,5.69212954
3.035235292,2.278861084,-0.995280304,4.068240051,4.76805703
3.045285292,1.829645233,-1.109043732,3.732188873,4.30195461
3.055335292,1.233435059,-1.087937622,3.607049103,3.964312493
3.065385292,0.69859726,-1.261277161,2.783461761,3.134727673
3.075435292,0.189206543,-1.792223053,1.983974304,2.680301593
3.085485292,-0.36973114,-2.270029449,1.525028687,2.759609993
3.095535292,-0.415086823,-2.435585175,0.905018005,2.631241115
3.105586292,0.146694946,-2.415526886,-0.424217834,2.456878165
3.115636292,0.131726074,-1.924547882,-0.437091064,1.977949673
3.125686292,-0.656834106,-1.753453674,0.115559692,1.876002365
3.135736292,-2.564616852,-2.022294617,1.366957397,3.540551884
3.145786292,-3.420237579,-2.100881195,0.932710419,4.120882869
3.155836292,-5.451214142,-2.359094238,1.952090607,6.252337082
3.165886292,-7.799081726,-2.820135498,3.421584778,8.971403591
3.175936292,-8.463699646,-2.599644012,4.462520142,9.914960751
3.185986292,-8.510252838,-1.817370758,3.144810333,9.252949361
3.196037292,-8.906478882,-1.823358307,2.8187883,9.518170468
3.206088292,-9.210197296,-2.339485016,3.818110199,10.24103949
3.216138292,-10.21685394,-2.154619446,3.879931641,11.13913637
3.226188292,-10.96439941,-2.08037384,4.624333649,12.08016852
3.236238292,-11.47259262,-2.367626495,5.210215302,12.82077923
3.246288292,-12.47371078,-2.993475037,5.216651917,13.84802552
3.256338292,-13.50416794,-3.834276581,5.052144012,14.91939636
3.266388292,-14.05517212,-4.280947723,5.031636658,15.53034913
3.276438292,-13.98571655,-4.343966675,5.084776154,15.50242763
3.286489292,-13.56015152,-4.343068542,4.925956421,15.06668511
3.296539292,-13.62691269,-4.524940338,4.851112061,15.15589399
3.306589292,-14.26668228,-5.012476501,4.826712799,15.8732574
3.316639292,-14.93204865,-5.476511536,5.173242188,16.72485247
3.326689292,-15.5564003,-5.486989746,5.735922089,17.46451972
3.336739292,-15.66881653,-5.044809265,5.990692291,17.5171432
3.346789292,-15.77060486,-4.491410065,5.937253418,17.43948738
3.356839292,-16.09108841,-4.046984253,6.109096069,17.6811273
3.366889292,-16.32235748,-3.603157196,6.58525589,17.96573658
3.376940292,-16.64778076,-2.780617676,6.82281189,18.20525202
3.386990292,-16.92784836,-2.002685394,7.313790894,18.54870174
3.397040292,-16.86617661,-1.274150391,7.660320282,18.5680338
3.407090292,-16.72546921,-0.660875702,7.647147675,18.40263417
3.417140292,-16.23823242,-0.602796478,7.677983551,17.97206129
3.427190292,-15.48514847,-0.701441345,7.231761475,17.10497638
3.437240292,-15.55984314,0.172291718,4.334985352,16.15334334
3.447290292,-14.53223007,0.123942261,1.303040314,14.59105845
3.457340292,-13.99155441,-0.744102631,-0.167801056,14.01233174
3.467391292,-13.46195572,-1.273252258,-0.833167419,13.54767844
3.477441292,-12.4124881,-1.691482544,-0.810714111,12.55341513
3.487491292,-11.27635071,-2.135010223,0.031284943,11.47673005
3.497541292,-10.46399002,-2.480641479,1.225651245,10.82362648
3.507591292,-10.33181488,-2.988235931,2.310595093,11.00067282
3.517641292,-10.50784882,-3.436403961,3.47861618,11.58984596
3.527691292,-10.54961197,-3.980971527,4.316274261,12.07363535
3.537741292,-10.28256729,-4.422702942,4.157454529,11.94051588
3.547791292,-9.886940002,-4.440216522,5.307213593,12.0678756
3.557841292,-9.60178299,-4.561314697,6.133495331,12.27271744
3.567892292,-9.60762085,-4.930896149,6.341412964,12.52332358
3.577942292,-8.708141327,-5.269941101,6.381080475,12.01341719
3.587992292,-7.790848846,-5.570366364,5.3004776,10.94629481
3.598042292,-6.956783295,-4.988376617,1.649719391,8.717930325
3.608092292,-7.063960419,-3.866609344,1.196312256,8.141336968
3.618142292,-7.603737946,-3.610641632,2.527793427,8.788816948
3.628192292,-7.672594757,-4.065096588,5.263953552,10.15396118
3.638242292,-9.198820953,-4.823569336,5.876330109,11.93383357
3.648293292,-10.40950333,-4.580325165,4.204756165,12.12506134
3.658343292,-11.79023209,-5.975124664,5.688470764,14.38994048
3.668393292,-11.59728333,-6.66953064,3.705244904,13.88194724
3.678443292,-9.38638092,-4.141886902,-0.717158661,10.2846337
3.688493292,-7.83844986,-1.392853546,-1.575773163,8.115688404
3.698543292,-9.852661285,-2.870430908,3.652554474,10.8929088
3.708593292,-10.7163652,-3.712579651,8.48660202,14.16496187
3.718643292,-9.461973724,-3.049159241,7.641609192,12.5387603
3.728693292,-8.614735565,-2.381697235,5.620063019,10.55799502
3.738743292,-8.115823059,-1.607357483,4.220024414,9.287560932
3.748794292,-6.950496368,-0.661324768,1.046623535,7.059898798
3.758844292,-6.001769257,0.385598145,-1.529369659,6.205553295
3.768894292,-3.519181824,1.095721436,-3.730093231,5.243933799
3.778944292,-0.348325653,2.356998596,-3.595523071,4.313300279
3.788994292,-2.980751495,1.429527283,-1.199755096,3.516793997
3.799044292,-6.023773499,-0.785865784,1.559606781,6.271826329
3.809094292,-6.813231812,-1.563947754,3.191363525,7.684455833
3.819144292,-5.751938782,-2.659818878,3.150348816,7.077014475
3.829194292,-4.856949921,-3.342998199,1.825603638,6.172392416
3.839245292,-3.615431671,-3.883673859,-0.116906891,5.307347363
3.849295292,-4.202061768,-4.738097076,-2.941383362,6.982737507
3.859345292,-5.52276535,-4.190535736,-4.580624542,8.309250752
3.869395292,-6.129304047,-2.640808411,-4.574337616,8.091155775
3.879445292,-7.150480499,-0.624201965,-3.883973236,8.16114254
3.889495292,-8.148155823,0.710722046,-4.061803436,9.132130983
3.899545292,-10.00354752,1.096918945,-2.935246124,10.48283663
3.909595292,-12.08152634,0.336799622,-1.529669037,12.18263518
3.919645292,-12.63073425,-1.356030121,-1.250200195,12.76468824
3.929696292,-12.18316498,-1.736239471,-0.496966553,12.31629052
3.939746292,-11.588302,-1.11862381,-1.585053864,11.74957268
3.949796292,-11.38607254,0.257165222,-2.72508316,11.71045943
3.959846292,-11.98452805,2.425705719,-0.819246368,12.25496329
3.969896292,-13.92060196,1.842368774,-0.764160919,14.06276728
3.979946292,-13.71627686,-1.676663361,-0.286354523,13.82134037
3.989996292,-11.77211975,-1.81243103,0.155825958,11.91184249
4.000046292,-11.30104935,-3.777544556,-1.216520233,11.97762417
4.010096292,-11.26033401,-4.279750214,-1.026565247,12.0898809
4.020146292,-11.2326416,-3.977528687,-1.197809143,11.9761312
4.030197292,-10.7774382,-3.760929108,-1.295705566,11.48810754
4.040247292,-9.851912842,-3.488944702,-0.87283493,10.4878388
4.050297292,-9.341324615,-4.797224121,-0.339643707,10.50661995
4.060347292,-8.110134888,-6.835834808,-0.050445099,10.60685958
4.070397292,-6.994504852,-7.266040192,-0.480500793,10.09699555
4.080447292,-6.674470367,-7.089407501,-1.681752777,9.881120676
4.090497292,-7.216792603,-6.715934143,-4.533023529,10.85053774
4.100547292,-8.023614807,-5.597160645,-6.412365417,11.69722326
4.110597292,-8.469537506,-4.464316406,-6.840175781,11.76652843
4.120648292,-9.283245392,-4.112996979,-6.383475494,11.99350443
4.130698292,-10.47701294,-4.201463013,-5.20572464,12.43059374
4.140748292,-10.74420731,-3.730841675,-3.379671936,11.86504752
4.150798292,-10.15338593,-3.284619598,-2.630479889,10.99087786
4.160848292,-8.839867401,-3.03404068,-1.120120697,9.412934128
4.170898292,-10.48329987,-2.979404297,0.571361847,10.91342661
4.180948292,-13.3149614,-2.970722351,1.026415558,13.68089607
4.190998292,-12.1072728,-0.890049133,-3.372486877,12.59967896
4.201048292,-10.29738647,1.397643585,-6.737938385,12.38504701
4.211098708,-11.78424454,1.530567169,-4.152065735,12.58772041
4.221148708,-13.21916061,0.80263092,-1.546733551,13.33352198
4.231198708,-12.28330673,2.015109558,-0.956959991,12.48423258
4.241248708,-10.68867279,3.798500977,-3.278182983,11.80774404
4.251298708,-10.87009552,3.644920349,-3.861519928,12.09775835
4.261348708,-12.37416779,4.148622894,-3.731590118,13.574088
4.271398708,-12.16265762,4.249213715,-4.539310455,13.65984616
4.281448708,-10.19365219,4.802163849,-3.64716568,11.84369622
4.291498708,-9.77841568,5.287304993,-2.1061203,11.31409519
4.301548708,-11.85759201,5.558540955,-2.562371521,13.34412281
4.311599708,-5.493875427,6.012397156,-0.974174194,8.202475366
4.321649708,-2.403851166,6.087840271,1.413959656,6.696236368
4.331699708,-4.046984253,4.020339661,2.91234375,6.404916756
4.341749708,-4.693639526,4.317022705,2.493065643,6.847066039
4.351799708,-4.440665588,5.81765213,0.777333527,7.359948002
4.361849708,-4.212240601,6.008954315,-0.337398376,7.346042506
4.371899708,-5.024601288,4.940476227,0.421673126,7.059230247
4.381949708,-6.410120087,2.601290588,0.760718079,6.959529025
4.391999708,-5.765560455,0.661474457,-0.694256287,5.844760698
4.402050708,-2.966531067,0.052391052,-0.128881989,2.969791568
4.412100708,-3.789519653,-2.272723846,0.49846344,4.44681894
4.422150708,-6.940317535,-4.238735504,0.776136017,8.16928842
4.432200708,-8.77565094,-6.465205536,0.488284607,10.91097401
4.442250708,-7.252867584,-6.487359467,-3.423830109,10.31564509
4.452300708,-5.752238159,-5.300627289,-5.325924683,9.46310558
4.462350708,-4.633913727,-5.007686462,2.840493164,7.390431757
4.472400708,-4.074976044,-4.044439545,4.547094269,7.323864231
4.482450708,-4.302951965,-4.227209473,0.78391983,6.082698895
4.492501708,-10.85542603,-5.764063568,-2.454296265,12.53348607
4.502551708,-10.33660492,-5.067561951,-3.345991974,11.98837969
4.512601708,-9.243428192,-3.980223083,-1.237776031,10.13978452
4.522651708,-8.617280273,-3.350782013,-0.049996033,9.245959064
4.532701708,-9.962981873,-4.54230423,-0.830023956,10.9810052
4.542751708,-11.56869278,-5.761069794,-2.20326828,13.11026197
4.552801708,-11.90893524,-6.087840271,-0.174986115,13.37591709
4.562851708,-11.65715881,-6.420598297,1.533860321,13.39649811
4.572901708,-11.86313049,-6.73269928,0.2468367,13.64272821
4.582951708,-12.61771133,-6.702162781,-1.184337158,14.33625752
4.593002708,-13.40672058,-5.953868866,-1.558409271,14.75185923
4.603052708,-13.80953293,-5.193450165,-1.475631409,14.82742771
4.613102708,-14.34017944,-4.764142914,-1.442849579,15.17957902
4.623152708,-14.69883362,-4.017944641,-2.524350586,15.44577401
4.633202708,-15.57451263,-3.717968445,-3.079396362,16.30556393
4.643252708,-16.57937302,-2.984493713,-3.372935944,17.1802069
4.653302708,-15.78961533,-1.06593338,-6.474785614,17.09886005
4.663352708,-14.7614035,0.252973938,-9.45658493,17.53254196
4.673402708,-13.24400894,0.298778687,-7.516469421,15.23122957
4.683453708,-11.49205215,-0.004041595,-6.064189453,12.99390906
4.693503708,-10.46099625,-0.587228851,-5.796396332,11.9739505
4.703553708,-8.131989441,-0.526455231,-4.664150848,9.389393511
4.713603708,-4.634512482,0.384550323,-3.695365448,5.939891471
4.723653708,-6.16283432,-0.583486633,-2.836002502,6.809103737
4.733703708,-6.818021851,-1.284478912,-2.548749847,7.391307991
4.743753708,-6.289470978,-1.692230988,-2.232457581,6.885125834
4.753803708,-5.847889252,-2.202370148,-1.87095932,6.522938889
4.763853708,-5.69011734,-2.850522308,-1.633702698,6.570532496
4.773904708,-5.154531097,-3.894601135,-1.876497803,6.727432857
4.783954708,-5.214855652,-5.532495117,-2.306852875,7.945111194
4.794004708,-5.002746735,-6.714586945,-2.181413727,8.652844537
4.804054708,-4.588408356,-7.088509369,-1.445244598,8.56674899
4.814104708,-4.520749054,-7.143445129,-0.914747772,8.503102011
4.824154708,-4.477638702,-6.626869354,-0.925076294,8.051112466
4.834204708,-4.247567139,-6.44829071,-0.68916687,7.752240364
4.844254708,-4.925956421,-7.060068512,-0.163160706,8.610240152
4.854304708,-6.387816467,-7.890691223,0.020956421,10.15222372
4.864354708,-6.01539093,-8.325087891,-0.4552034,10.28101292
4.874405708,-5.875731354,-8.861871643,-1.075663147,10.68709685
4.884455708,-5.578898621,-9.258995819,-1.580862579,10.92484507
4.894505708,-5.426216125,-8.962761841,-1.675765228,10.61051885
4.904555708,-5.486241302,-8.554411011,-1.529669037,10.27699755
4.914605708,-5.831573181,-8.793463898,-1.374142456,10.64051317
4.924655708,-6.362818451,-9.4636203,-1.495090942,11.50134187
4.934705708,-6.702911224,-9.965376892,-1.946252747,12.16657944
4.944755708,-6.87430481,-10.89299789,-2.405348053,13.10340295
4.954805708,-7.172484741,-11.78244827,-2.890040131,14.0933657
4.964855708,-7.12233902,-11.12456635,-3.447331238,13.65165859
4.974906708,-6.914571075,-10.01103195,-3.979175262,12.80101128
4.984956708,-6.995103607,-9.782606964,-4.581073608,12.86923109
4.995006708,-6.706503754,-9.999655609,-5.604495392,13.28083858
5.005056708,-6.251450043,-9.805659027,-8.643176422,14.48917097
5.015106708,-5.334307251,-8.877139893,-12.21265366,16.01272481
5.025156708,-4.003724213,-7.420818329,-11.22874969,14.04219256
5.035206708,-3.758085022,-6.665189667,-7.659122772,10.82636218
5.045256708,-3.731290741,-6.406976624,-4.882846069,8.877728639
5.055306708,-3.30662384,-6.14651825,-3.097808075,7.636089489
5.065357708,-2.694846039,-5.811365204,-1.989812164,6.707720414
5.075407708,-2.168091431,-5.542823639,-1.486558685,6.134604394
5.085457708,-1.579814758,-4.85006424,-1.665137329,5.36578234
5.095507708,-1.224753113,-4.444407806,-1.831890564,4.960705996
5.105557708,-0.966689758,-4.168830872,-1.964963837,4.709004439
5.115607708,-0.615220642,-3.755540314,-1.74462204,4.186440678
5.125657708,0.097896423,-3.334316254,-2.656376038,4.264221177
5.135707708,0.718805237,-4.011358337,-5.834117889,7.116502528
5.145757708,1.091829529,-6.015690308,-8.334069214,10.33621455
5.155807708,1.585203552,-8.59078537,-7.510930939,11.52078761
5.165858708,1.181193695,-11.54444321,-4.386927338,12.40622904
5.175908708,-0.105530548,-14.60931976,-0.930315399,14.63929122
5.185958708,-2.364483032,-17.60069916,0.983903961,17.78604672
5.196008708,-3.354374542,-20.67051544,1.776655426,21.01614955
5.206058458,-4.025878143,-23.50472168,1.12910202,23.87372002
5.216108458,-3.512146454,-26.10526382,-0.935105438,26.35705587
5.226158458,-1.564696198,-23.8813385,-3.515888672,24.18942074
5.236208458,0.175285492,-18.75779297,-3.930077362,19.16588193
5.246258458,0.85651886,-13.55610992,-1.866618347,13.71079884
5.256309458,0.628842316,-9.637708282,-0.048050079,9.658321407
5.266359458,0.409398651,-6.880292358,0.47151947,6.908571546
5.276409458,0.136067047,-4.989574127,0.210761719,4.995876771
5.286459458,0.135617981,-4.183650055,0.224084015,4.191841321
5.296509458,0.952020264,-4.381239166,0.268541565,4.491515756
5.306559458,1.44269989,-4.342769165,-0.564925232,4.610874918
5.316609458,1.16772171,-4.208348694,-1.471440125,4.608569058
5.326659458,0.67629364,-4.437671814,-1.839973755,4.851371727
5.336709458,0.212857361,-4.987777863,-1.844464417,5.322150434
5.346759458,-0.150437164,-5.528004456,-1.555864563,5.744752313
5.356810458,-0.527952118,-5.917644196,-1.139879608,6.049510045
5.366860458,-0.806373138,-6.351741486,-0.753233643,6.446876644
5.376910458,-0.511636047,-6.785988464,-0.599503326,6.83160414
5.386960458,0.684227142,-6.890471191,-1.012494507,6.997992937
5.397010458,1.234782257,-6.815926208,-1.351090393,7.05740622
5.407060458,1.132395172,-6.911277924,-1.434167633,7.148770395
5.417110458,0.802780609,-7.316634979,-2.018552399,7.632310129
5.427160458,0.097297668,-7.849826202,-3.049458618,8.421902167
5.437210458,-1.012644196,-8.462352448,-4.27436142,9.534517437
5.447261458,-2.391277313,-9.229806519,-6.05401062,11.29418347
5.457311458,-4.116739197,-10.07494904,-8.186326447,13.61866662
5.467361458,-6.040089569,-11.04987167,-9.743687897,15.92236791
5.477411458,-8.168064423,-12.05248672,-9.815538483,17.55917163
5.487461458,-10.16551071,-12.87906784,-9.191785583,18.8068317
5.497511458,-11.13923584,-13.46375198,-9.218130798,19.75674892
5.507561458,-10.68343369,-13.51943619,-9.6520784,19.75027918
5.517611458,-9.350605316,-13.01423676,-10.41459274,19.11198368
5.527661458,-7.595654755,-12.49496658,-11.17516113,18.40386882
5.537711458,-5.307063904,-12.07104813,-10.39962387,16.79366865
5.547762458,-3.908971252,-11.82376236,-6.835086365,14.20562629
5.557812458,-3.231031036,-11.37125336,-2.49815506,12.08245601
5.567862458,-2.347867584,-9.788444824,0.382155304,10.07333991
5.577912458,-1.291663971,-7.897576904,1.909279633,8.22711769
5.587962458,-0.030087433,-6.514453125,0.663869476,6.548261407
5.598012458,1.746418304,-6.046077118,-4.081113281,7.500700702
5.608062458,3.138074341,-7.133116608,-9.056616669,11.94785205
5.618112458,2.46073288,-9.767488403,-10.73118439,14.71792629
5.628162458,-2.883004761,-12.68043091,-8.739276581,15.66780137
5.638213458,-9.029972076,-14.18165909,-3.968547363,17.27452513
5.648263458,-10.461595,-14.27222076,0.030985565,17.69582481
5.658313458,-8.53225708,-12.2690863,4.695735168,15.664604
5.668363458,-6.849606171,-9.979447632,8.308921509,14.68143918
5.678413458,-5.583838348,-7.775730286,8.848848724,13.03623243
5.688463458,-4.830005951,-5.827381897,7.976163483,10.99575014
5.698513458,-4.744533691,-5.155578918,7.069798279,9.953524081
5.708563458,-5.203179932,-5.763913879,5.125042419,9.303861801
5.718613458,-6.28213623,-7.019203491,4.143683167,10.29099429
5.728663458,-7.213050385,-8.578061829,3.871399384,11.85744381
5.738714458,-7.070247345,-9.542206879,2.679128723,12.17455709
5.748764458,-6.658603363,-10.04276596,1.440903625,12.13549958
5.758814458,-6.035149841,-10.42387344,1.235231323,12.10809513
5.768864458,-5.204078064,-10.66367477,1.867666168,12.01185103
5.778914458,-4.730013885,-10.81486038,2.676584015,12.1036498
5.788964458,-4.326453094,-10.88057373,3.182531891,12.13398493
5.799014458,-3.566034393,-10.90153015,3.07146286,11.87408291
5.809064458,-2.571352844,-10.97772171,2.677631836,11.58844
5.819114458,-1.484762421,-10.86650299,2.401905212,11.22740199
5.829165458,-0.513432312,-10.64122147,2.225721588,10.88361354
5.839215458,0.362845459,-10.40635986,2.064357147,10.61534516
5.849265458,1.0683284,-10.13003448,1.971101074,10.37517054
5.859315458,2.02663559,-9.885892181,1.943408661,10.27691361
5.869365458,2.778522034,-9.485624542,1.736987915,10.03565567
5.879415458,3.481160889,-9.037157135,1.535357208,9.805407282
5.889465458,4.456382904,-8.452622681,1.490450592,9.670967983
5.899515458,5.042713623,-7.881410522,1.498234406,9.475774314
5.909565458,4.80081665,-7.6149646,1.355880432,9.103512405
5.919615458,3.956871643,-7.667505341,1.102756805,8.698479403
5.929666458,2.895578613,-8.179291077,1.009201355,8.73519693
5.939716458,2.022893372,-9.210796051,1.148262177,9.499966711
5.949766458,1.394051056,-10.41070084,1.489702148,10.60873615
5.959816458,0.853375397,-11.31437164,1.984123993,11.51868062
5.969866458,0.040266266,-12.38749008,2.439477081,12.62547347
5.979916458,-0.938697968,-13.57092911,2.710263977,13.87071741
5.989966458,-1.931433563,-14.6075235,2.685864716,14.97745131
6.000016458,-2.851719818,-15.03069351,2.037862244,15.43395399
6.010066458,-3.616180115,-14.38643326,0.379311218,14.83880378
6.020116458,-4.712649994,-12.8172464,-1.234632568,13.71186321
6.030167458,-5.773793335,-11.02307739,-2.702031097,12.73365214
6.040217458,-6.585555267,-9.474547577,-3.718118134,12.1227469
6.050267458,-6.789580994,-8.285719757,-4.027674408,11.44437517
6.060317458,-6.588099976,-7.399263153,-3.466192017,10.4960299
6.070367458,-6.131100311,-6.779252472,-2.396516418,9.449441573
6.080417458,-5.312752075,-6.248007202,-1.209335175,8.290079624
6.090467458,-4.54230423,-6.040688324,-0.399818573,7.568506988
6.100517458,-4.118086395,-6.418951721,0.116457825,7.627262889
6.110567458,-3.726351013,-7.131470032,0.276624756,8.051091724
6.120618458,-3.221600647,-7.825726318,0.223335571,8.465847974
6.130668458,-2.725232849,-8.486901398,0.146096191,8.914916349
6.140718458,-2.366728363,-9.151369629,0.109871521,9.453096899
6.150768458,-2.299368439,-9.861941986,0.143551483,10.1274677
6.160818458,-2.368374939,-10.5518573,0.239801331,10.81704197
6.170868458,-2.490221558,-11.16288666,0.368234253,11.44320053
6.180918458,-2.503693542,-11.55626862,0.470920715,11.83374801
6.190968458,-2.268233185,-11.58455978,0.522862701,11.8161031
6.201018458,-1.83473465,-11.27979355,0.481249237,11.43816395
6.211069292,-1.474583588,-10.77519287,0.393082581,10.88272448
6.221120292,-1.327140198,-10.16760635,0.331710205,10.25921789
6.231170292,-1.351240082,-9.567504272,0.35102005,9.668826342
6.241220292,-1.529818726,-9.047036591,0.379460907,9.18331133
6.251270292,-1.871109009,-8.704399109,0.423768768,8.913315474
6.261320292,-2.240391083,-8.674012299,0.585282898,8.97777242
6.271370292,-2.569706268,-8.817563782,0.728834381,9.213252461
6.281420292,-2.804867249,-8.992250519,0.806522827,9.454011252
6.291470292,-2.980003052,-9.173822937,0.735420685,9.67369056
6.301520292,-3.261118469,-9.422006836,0.595312042,9.988168146
6.311570292,-3.53714447,-9.708061981,0.295934601,10.33660659
6.321621292,-3.70329895,-9.84622467,0.017064514,10.51964137
6.331671292,-3.758983154,-9.865235138,-0.221688995,10.55944907
6.341721292,-3.755390625,-9.780062256,-0.449964294,10.48594509
6.351771292,-3.697760468,-9.640252991,-0.590372314,10.34197513
6.361821292,-3.566184082,-9.506880341,-0.7020401,10.17798128
6.371871292,-3.368145905,-9.359586639,-0.743653564,9.974933058
6.381921292,-3.084934845,-9.286388855,-0.677640839,9.8088245
6.391971292,-2.790048065,-9.350755005,-0.636326752,9.77884958
6.402021292,-2.475402374,-9.42036026,-0.569415894,9.756794494
6.412071292,-2.230661316,-9.449399872,-0.450413361,9.719561721
6.422122292,-2.110461273,-9.475595398,-0.326620789,9.713271131
6.432172292,-2.154918823,-9.533225555,-0.158071289,9.775021798
6.442222292,-2.297272797,-9.644294586,0.029937744,9.914170497
6.452272292,-2.417472839,-9.75386673,0.27497818,10.0527461
6.462322292,-2.447560272,-9.754016418,0.494721222,10.06857173
6.472372292,-2.412084045,-9.67662735,0.675694885,9.995590522
6.482422292,-2.370769958,-9.571994934,0.790057068,9.892816959
6.492472292,-2.414778442,-9.479487305,0.791404266,9.814181331
6.502522292,-2.551593933,-9.438173218,0.712218933,9.802907788
6.512573292,-2.746788025,-9.361682281,0.615070953,9.775697002
6.522623292,-2.999612274,-9.273815002,0.541424103,9.761888063
6.532673292,-3.354973297,-9.213640137,0.470022583,9.816716947
6.542723292,-3.707041168,-9.160201263,0.404458923,9.890148049
6.552773292,-3.97363678,-9.07398056,0.290396118,9.910158544
6.562823292,-4.142485657,-8.969048767,0.154179382,9.880677835
6.572873292,-4.197421417,-8.863218842,-0.005239105,9.80688647
6.582923292,-4.137994995,-8.788673859,-0.191451874,9.715989121
6.592973292,-4.033063202,-8.775950317,-0.386346588,9.666031577
6.603023292,-3.859424286,-8.861572266,-0.58737854,9.683368855
6.613074292,-3.604504395,-9.005423126,-0.823138275,9.734867962
6.623124292,-3.305276642,-9.172176361,-1.077758789,9.808936583
6.633174292,-3.059936829,-9.336684265,-1.428479462,9.928617227
6.643224292,-2.810705109,-9.517059174,-1.887724457,10.10138516
6.653274292,-2.562970276,-9.657467194,-2.434687042,10.28412321
6.663324292,-2.37406311,-9.783954163,-2.906655579,10.47905441
6.673374292,-2.327060852,-9.913584595,-3.139421539,10.65600016
6.683424292,-2.392025757,-10.0289946,-3.132984924,10.77581154
6.693474292,-2.439776459,-10.1815274,-3.057691498,10.90713009
6.703524292,-2.285896454,-10.34259247,-2.985840912,11.00498921
6.713575292,-2.139351196,-10.28062134,-2.945275269,10.90608294
6.723625292,-2.07573349,-10.02345612,-3.036286011,10.67695531
6.733675292,-2.019749908,-9.676178284,-3.122357025,10.36614341
6.743725292,-1.832489319,-9.331744537,-3.241359558,10.04718294
6.753775292,-1.548529816,-9.066496124,-3.654350739,9.897149887
6.763825292,-1.299148407,-8.964857483,-4.064348145,9.92851359
6.773875292,-1.332528992,-9.092991028,-4.378245392,10.17974224
6.783925292,-1.578766937,-9.472002869,-4.474046173,10.59379217
6.793975292,-1.66618515,-10.03094055,-4.362977142,11.06487735
6.804025292,-1.637145538,-10.63194077,-3.973337402,11.46759871
6.814076292,-1.558409271,-11.17875366,-3.504961395,11.81854167
6.824126292,-1.705702972,-11.58186539,-3.186723175,12.13277516
6.834176292,-2.163151703,-11.84696411,-2.603236542,12.3209831
6.844226292,-2.792892151,-11.81058975,-1.909279633,12.28558609
6.854276292,-3.405418396,-11.22785156,-1.710043945,11.85688726
6.864326292,-3.708987122,-10.28556107,-1.407223663,11.02404782
6.874376292,-3.55241272,-9.327553253,-1.213077393,10.05457322
6.884426292,-3.278781738,-8.442294159,-1.518442383,9.183050017
6.894476292,-3.036884766,-7.66166748,-1.627715149,8.400790098
6.904526292,-2.90411087,-6.99600174,-1.473535767,7.716813328
6.914577292,-2.929258575,-6.492448883,-1.36905304,7.253051394
6.924627292,-2.943179626,-6.227050781,-1.391356659,7.026687776
6.934677292,-2.879861298,-6.156098328,-1.419049072,6.942971121
6.944727292,-2.834954681,-6.177204437,-1.299447784,6.919782312
6.954777292,-2.806064758,-6.367009735,-1.202150116,7.061018149
6.964827292,-2.848276978,-6.64602951,-1.163979492,7.323744824
6.974877292,-2.880909119,-6.969806213,-1.06473587,7.61652798
6.984927292,-2.875071259,-7.264692993,-1.018931122,7.879087489
6.994977292,-2.839295654,-7.542066193,-1.046174469,8.126428692
7.005027292,-2.754571838,-7.826025696,-1.121767273,8.372138677
7.015078292,-2.669997711,-8.105494537,-1.240769806,8.62365579
7.025128292,-2.572550354,-8.390202484,-1.431323547,8.89169276
7.035178292,-2.498454437,-8.694519653,-1.791175232,9.221998443
7.045228292,-2.418820038,-9.056017914,-2.268981628,9.644191436
7.055278292,-2.177970886,-9.529483337,-2.858306122,10.18452374
7.065328292,-1.589993591,-10.00100281,-3.614982605,10.75249906
7.075378292,-0.806073761,-10.24065445,-4.467310181,11.20167928
7.085428292,-0.044607239,-10.34543655,-5.032085724,11.50443106
7.095478292,0.436192932,-10.31190628,-5.331313477,11.61673701
7.105528292,0.609233093,-10.23930725,-5.631139984,11.70146638
7.115579292,0.590372314,-10.08363098,-5.712420959,11.60430551
7.125629292,0.357157288,-9.899663544,-5.585484924,11.37227073
7.135679292,-0.00239502,-9.800120544,-5.208868103,11.09840868
7.145729292,-0.448766785,-9.743089142,-4.618795166,10.7917768
7.155779292,-0.890498199,-9.702972565,-3.936513977,10.50889176
7.165829292,-1.284329224,-9.714498596,-3.198548584,10.30784641
7.175879292,-1.619781647,-9.697733459,-2.477498016,10.13941434
7.185929292,-1.948797455,-9.638905792,-1.839973755,10.00458994
7.195979292,-2.276166687,-9.5034375,-1.364712067,9.867051136
7.206030292,-2.639910278,-9.339977417,-1.155596924,9.774441604
7.216080292,-3.150947571,-9.186845856,-1.363664246,9.807455712
7.226130292,-3.672014008,-8.961414642,-1.848206635,9.859336034
7.236180292,-4.126468964,-8.706943817,-2.416425018,9.933666323
7.246230292,-4.515809326,-8.66922226,-3.080144806,10.24867018
7.256280292,-4.722379761,-8.689130859,-3.303031311,10.42649901
7.266330292,-4.592300262,-8.931776276,-3.447929993,10.61857196
7.276380292,-3.320993958,-8.715326385,-3.189118195,9.85679409
7.286430292,-2.459235992,-8.281528473,-2.193538513,8.913089628
7.296480292,-3.229683838,-8.468489685,-1.563947754,9.197396796
7.306531292,-4.677772522,-8.812624054,-1.122964783,10.04016675
7.316581292,-5.246290283,-9.028475189,-1.038091278,10.49354847
7.326631292,-4.8850914,-8.978628845,-0.961300964,10.2666447
7.336681292,-4.051474915,-8.922794952,-1.013093262,9.851755006
7.346731292,-3.019670563,-8.699010315,-0.345780945,9.214703209
7.356781292,-2.350412292,-8.542136536,-0.445323944,8.870786208
7.366831292,-2.142195282,-8.655450897,-0.70787796,8.944658857
7.376881292,-2.236798553,-8.919501801,-0.773591309,9.228175532
7.386931292,-2.436632996,-9.322164459,-0.822689209,9.670405787
7.396981292,-2.581681366,-9.882898407,-0.693956909,10.23808262
7.407032292,-2.249821472,-10.19784348,-0.794996796,10.4732864
7.417082292,-1.553170166,-10.13736923,-1.134640503,10.31823636
7.427132292,-0.771495667,-9.9387323,-1.632355499,10.10139544
7.437182292,-0.039667511,-9.760602722,-2.453547821,10.06433485
7.447232292,0.680185547,-9.761650543,-3.795357513,10.49558061
7.457282292,1.444346466,-9.869426422,-5.356161804,11.32166878
7.467332292,1.658251648,-9.95160553,-6.042783966,11.76008032
7.477382292,0.939296722,-10.02944366,-5.293891296,11.3796882
7.487432292,-0.182919617,-10.086026,-3.911665649,10.81954288
7.497482292,-1.049766998,-10.14185989,-2.501148834,10.49833693
7.507533292,-1.490600281,-10.03932312,-1.368903351,10.24127894
7.517583292,-1.765728149,-9.769284668,-0.513731689,9.940857059
7.527633292,-2.087259521,-9.561666412,0.241148529,9.789804365
7.537683292,-2.523751831,-9.498198395,0.729882202,9.854837598
7.547733292,-2.880160675,-9.495354309,0.887205048,9.962138915
7.557783292,-2.985990601,-9.397906952,0.922980652,9.903973356
7.567833292,-2.882855072,-9.133556671,0.937350769,9.623478441
7.577883292,-2.726729736,-8.890162811,0.948727112,9.347199206
7.587933292,-2.60578125,-8.754395142,0.957259369,9.184001073
7.597983292,-2.630629578,-8.738079071,0.972826996,9.17717986
7.608034292,-2.869832153,-8.844807129,0.977167969,9.349941549
7.618084292,-3.156186676,-9.063801727,0.966390381,9.646135312
7.628134292,-3.490291901,-9.325906677,1.001118164,10.00784245
7.638184292,-3.781885529,-9.587412872,0.980161743,10.35286727
7.648234292,-3.995042267,-9.835447083,0.990490265,10.66196291
7.658284292,-4.2321492,-10.06491989,0.933309174,10.95831946
7.668334292,-4.458628235,-10.29274612,0.803229675,11.24567323
7.678384292,-4.697531433,-10.51802765,0.624651031,11.53628606
7.688434292,-4.941074982,-10.70453979,0.467477875,11.79914954
7.698484292,-5.111570435,-10.76531342,0.346080322,11.92224378
7.708535292,-5.230722656,-10.64825684,0.199684753,11.8653153
7.718585292,-5.277425537,-10.36549484,0.000149689,11.63162515
7.728635292,-5.057383118,-9.834998016,-0.184117126,11.06066043
7.738685292,-4.669240265,-9.261390839,-0.299078064,10.37615596
7.748735292,-4.365671539,-8.68434082,-0.383053436,9.727465929
7.758785292,-4.06374939,-8.208330688,-0.51133667,9.173451749
7.768835292,-3.695215759,-8.000113678,-0.525856476,8.82796485
7.778885292,-3.397784271,-8.089627533,-0.505947876,8.788799396
7.788935292,-3.089724884,-8.357121277,-0.475112,8.922645757
7.798985292,-2.667602692,-8.710536346,-0.446521454,9.12079651
7.809036292,-2.242486725,-9.01081192,-0.516725464,9.300025988
7.819086292,-1.924996948,-9.225465546,-0.630339203,9.445218647
7.829136292,-1.737886047,-9.456435242,-0.718655548,9.641622332
7.839186292,-1.645677795,-9.641899567,-0.759670258,9.810789039
7.849236292,-1.591939545,-9.797875214,-0.81325882,9.959619477
7.859286292,-1.468895416,-9.817783813,-0.987945557,9.976099898
7.869336292,-1.340163116,-9.778565369,-1.162781982,9.93823122
7.879386292,-1.334924011,-9.605076141,-1.360969849,9.792433238
7.889436292,-1.407373352,-9.294771423,-1.72007309,9.556784344
7.899486292,-1.641187134,-8.981173553,-2.085014191,9.36494836
7.909537292,-2.084565125,-8.894054718,-2.318229218,9.424638337
7.919587292,-2.796334991,-9.15002243,-2.313888245,9.8436009
7.929637292,-3.517984314,-9.357341309,-2.055226135,10.20588088
7.939687292,-4.286336517,-9.624086609,-1.609752502,10.65772147
7.949737292,-4.983287201,-9.894574127,-1.046623535,11.12794542
7.959787292,-5.368436279,-9.98079483,-0.451012115,11.34194805
7.969837292,-5.385650482,-9.969717865,0.10642868,11.33189448
7.979887292,-5.295537872,-10.03932312,0.618813171,11.36721865
7.989937292,-5.294040985,-10.2294278,1.059047699,11.56674738
7.999987292,-5.227279816,-10.48629364,1.188229065,11.77704109
8.010037292,-4.972659302,-10.62954575,1.086291046,11.78535581
8.020088292,-4.232747955,-10.38869659,0.600102081,11.23393496
8.030138292,-3.330274658,-10.07345215,-0.180823975,10.61121411
8.040188292,-2.579885101,-9.798773346,-0.910257111,10.1735114
8.050238292,-1.974244537,-9.482930145,-1.605860596,9.818472075
8.060288292,-1.422042847,-9.220675507,-2.443967743,9.644482411
8.070338292,-0.913999329,-8.93477005,-3.395239563,9.601727048
8.080388292,-0.611777802,-8.593479767,-4.715194702,9.821162236
8.090438292,-0.70323761,-8.296796722,-7.980055389,11.53311159
8.100488292,-1.904489594,-8.829688568,-10.11371841,13.56015417
8.110539292,-2.522404633,-10.15069153,-7.371421051,12.79597249
8.120589292,-1.92364975,-11.37709122,-3.859723663,12.16700866
8.130639292,-1.104403381,-12.53463409,-0.690514069,12.60212555
8.140689292,-0.808768158,-13.75908783,1.445993042,13.85848115
8.150739292,-0.81325882,-14.41173065,1.777104492,14.54364021
8.160789292,-1.213975525,-14.10756317,0.945134583,14.19120695
8.170839292,-2.17871933,-13.40103241,-1.017733612,13.61507507
8.180889292,-2.871329041,-12.33599716,-2.823129272,12.97657179
8.190939292,-2.069596252,-11.02098175,-4.229754181,11.9848274
8.200989292,-0.113314362,-9.673184509,-4.530778198,10.6822886
8.211040042,1.318607941,-8.530909882,-3.789369965,9.427325975
8.221090042,1.992955627,-7.798033905,-2.101030884,8.318385402
8.231140042,1.896406403,-7.375312958,-0.185015259,7.617468682
8.241190042,1.071022797,-7.159461823,0.987646179,7.3061911
8.251240042,-0.241896973,-7.155719604,1.379381561,7.291469721
8.261290042,-1.224902802,-7.04390213,0.913400574,7.207721186
8.271340042,-1.791324921,-6.936725006,0.077389069,7.16470431
8.281390042,-2.687211914,-7.119195557,-0.360450439,7.618003529
8.291440042,-3.750301208,-7.424560547,-0.382155304,8.326758141
8.301490042,-4.289180603,-7.487579498,-0.777333527,8.664015489
8.311540042,-4.774321747,-7.728877716,-1.31980545,9.179955627
8.321591042,-5.121749268,-7.903863831,-1.489702148,9.535333843
8.331641042,-5.070406036,-7.746241608,-1.835932159,9.438428011
8.341691042,-5.218298492,-7.608977051,-1.96571228,9.433514493
8.351741042,-5.139113159,-7.416627045,-2.149979095,9.27573452
8.361791042,-4.693489838,-7.189549255,-2.162253571,8.854027663
8.371841042,-3.872297516,-6.900500336,-1.891167297,8.135607333
8.381891042,-3.395988007,-6.93388092,-1.820214844,7.932504096
8.391941042,-3.213367767,-7.358847198,-2.146985321,8.311913767
8.401991042,-2.726580048,-7.665858765,-2.312840424,8.458655932
8.412041042,-1.947300568,-7.87347702,-2.389930115,8.455494417
8.422092042,-1.248852997,-8.023465118,-2.675685883,8.549556787
8.432142042,-0.85532135,-8.075257416,-2.848276978,8.605465629
8.442192042,-0.679437103,-8.111781464,-2.931503906,8.651956336
8.452242042,-0.601748657,-8.107889557,-3.008593597,8.669002823
8.462292042,-0.58618103,-8.086184692,-3.139122162,8.693910457
8.472342042,-0.689466248,-8.1391745,-3.365601196,8.834523001
8.482392042,-0.870739288,-8.253087616,-3.734434204,9.100419822
8.492442042,-1.19466568,-8.275540924,-4.17721344,9.346706147
8.502492042,-1.820065155,-8.286617889,-4.562661896,9.633200755
8.512542042,-2.95096344,-8.41056015,-4.770579529,10.10960614
8.522593042,-4.248315582,-8.578959961,-4.867278442,10.73951297
8.532643042,-5.543572083,-8.802744598,-4.903503113,11.50060201
8.542693042,-6.769073639,-9.118138733,-5.021607513,12.41681738
8.552743042,-7.753576355,-9.51750824,-5.162763977,13.31747128
8.562793042,-8.449329529,-9.930200043,-5.269192657,14.0628743
8.572843042,-8.838669891,-10.34364029,-5.105732574,14.53208468
8.582893042,-8.792565765,-10.91275681,-4.633614349,14.76034741
8.592943042,-8.149952087,-11.67751648,-4.19472702,14.84526338
8.602993042,-7.442672882,-12.41368561,-4.159400482,15.05966741
8.613043042,-6.84496582,-12.93115952,-4.467160492,15.29784189
8.623094042,-6.349945221,-13.25643311,-4.554878082,15.3883637
8.633144042,-5.82588501,-13.46569794,-4.283342743,15.28440323
8.643194042,-4.968617706,-13.34385132,-3.819607086,14.74228368
8.653244042,-3.540587311,-12.21879089,-3.378474426,13.16239715
8.663294042,-2.208357697,-10.59122543,-2.778671722,11.17013502
8.673344042,-1.104702759,-9.383237457,-1.548529816,9.574103507
8.683394042,-0.214054871,-8.37313797,-0.189056854,8.378007009
8.693444042,0.485141144,-7.454198914,0.285157013,7.475410216
8.703494042,1.078656921,-6.716981964,0.313448181,6.810256766
8.713544042,1.357227631,-6.112239532,0.300425262,6.268316702
8.723594042,1.355131989,-5.574407959,0.30536499,5.744880728
8.733645042,1.256187744,-5.31215332,0.379909973,5.471865508
8.743695042,1.179696808,-5.434898071,0.537382507,5.587359087
8.753745042,1.14317276,-5.95222229,0.641865234,6.094898287
8.763795042,0.689466248,-6.934779053,0.91265213,7.028474808
8.773845042,-0.239951019,-8.305478668,1.324146423,8.413793208
8.783895042,-1.285676422,-9.758058014,1.645378418,9.978974406
8.793945042,-2.080822906,-11.10839996,2.154020691,11.50505015
8.803995042,-2.686313782,-12.17059113,2.678979034,12.7481959
8.814045042,-3.110681305,-12.78281799,3.141966248,13.52585398
8.824095042,-3.546874237,-12.81769547,3.130440216,13.6628434
8.834146042,-4.153712311,-12.35560638,2.438878326,13.26131451
8.844196042,-4.452341309,-11.69742508,1.56903717,12.61407841
8.854246042,-4.178261261,-10.83671494,0.902922363,11.64935734
8.864296042,-3.621119843,-9.967173157,0.263751526,10.60785626
8.874346042,-3.351231079,-9.27755722,-0.305963745,9.869013706
8.884396042,-3.3522789,-8.703351288,-0.923429718,9.372236655
8.894446042,-3.479364624,-8.30757431,-1.366358643,9.109813667
8.904496042,-3.72560257,-8.017627258,-1.796863403,9.021706017
8.914546042,-3.986659698,-7.842641144,-2.109862518,9.047209266
8.924596042,-4.266577606,-7.739056549,-2.417472839,9.161924234
8.934647042,-4.461023254,-7.726782074,-2.675236816,9.31454678
8.944697042,-4.407285004,-7.840246124,-2.723735962,9.397465508
8.954747042,-4.145778809,-8.17539917,-2.667003937,9.546598531
8.964797042,-3.725901947,-8.559949493,-2.473755798,9.657874942
8.974847042,-3.242108002,-8.795858917,-1.991758118,9.58360573
8.984897042,-2.849624176,-8.861871643,-1.294957123,9.398406296
8.994947042,-2.534230042,-8.893156586,-0.471818848,9.259220755
9.004997042,-2.364183655,-8.821904755,0.246237946,9.136520179
9.015047042,-2.332150269,-8.674760742,0.688867493,9.00915852
9.025097042,-2.260299683,-8.503666534,0.833466797,8.838323715
9.035148042,-2.129771118,-8.34155365,0.811013489,8.647264607
9.045198042,-2.105970612,-8.283923492,0.576301575,8.566832796
9.055248042,-2.116598511,-8.28422287,0.291893005,8.555322281
9.065298042,-2.110012207,-8.447233887,-0.013322296,8.706784098
9.075348042,-2.126477966,-8.769513702,-0.342637482,9.030153906
9.085398042,-2.105371857,-9.183103638,-0.654139709,9.444039487
9.095448042,-2.074685669,-9.588610382,-0.832718353,9.845770134
9.105498042,-2.198478241,-9.996212769,-0.899928589,10.27460207
9.115548042,-2.378553772,-10.13437546,-0.706381073,10.4336982
9.125598042,-2.627037048,-10.0077388,-0.279169464,10.35056014
9.135649042,-2.755170593,-9.665251007,0.072449341,10.05053685
9.145699042,-2.999911652,-9.33728302,0.430953827,9.816824604
9.155749042,-3.623065796,-9.28234726,0.831820221,9.999025017
9.165799042,-4.340074768,-9.276808777,1.12565918,10.30352069
9.175849042,-5.055736542,-9.189240875,1.298100586,10.56823945
9.185899042,-5.699398041,-9.069040833,1.408271484,10.80341928
9.195949042,-6.256988525,-8.997639313,1.472188568,11.05779172
9.205999042,-6.787185974,-8.985963593,1.312321014,11.33735514
9.216048792,-7.345375214,-9.0283255,0.837658081,11.66905606
9.226098792,-8.054001617,-9.240883484,0.114062805,12.25862472
9.236148792,-8.797804871,-9.804910583,-0.839304657,13.20007858
9.246199792,-9.309740295,-10.48464706,-2.205214233,14.19373306
9.256249792,-9.164991302,-10.66502197,-3.755091248,14.55474045
9.266299792,-8.175249481,-10.9088649,-5.030289459,14.53072089
9.276349792,-6.647825775,-11.33951935,-7.974516907,15.37436849
9.286399792,-4.823868713,-11.80609909,-11.73215286,17.32908237
9.296449792,-4.054618378,-12.51712051,-10.70738388,16.96367607
9.306499792,-5.160967712,-13.09027863,-5.31454834,15.04112384
9.316549792,-5.231620789,-13.23278229,-1.735940094,14.3349179
9.326599792,-3.932173004,-13.0308522,-0.004191284,13.6112127
9.336650792,-2.422562256,-12.75317963,0.59905426,12.99504769
9.346700792,-0.794547729,-12.85332138,-0.100740509,12.87825009
9.356750792,0.333656158,-13.49698288,-1.387165375,13.57218115
9.366800792,1.033899994,-14.09334274,-2.00672699,14.2729889
9.376850792,1.745370483,-14.57998077,-2.252665558,14.8558628
9.386900792,2.41388031,-15.11152542,-2.971171417,15.58887033
9.396950792,2.325863342,-15.18307663,-2.813698883,15.61577272
9.407000792,2.032623138,-14.3514061,-1.423689423,14.56438483
9.417050792,1.861229553,-12.79973282,0.233813782,12.93646028
9.427100792,1.38656662,-11.16183884,1.36082016,11.32965334
9.437150792,0.577199707,-9.504185944,1.445693665,9.630822401
9.447201792,-0.801433411,-8.503217468,0.851429443,8.583235691
9.457251792,-2.224823456,-8.120912476,0.066162415,8.420417823
9.467301792,-2.857857056,-7.714058533,-0.434246979,8.237876937
9.477351792,-2.922223206,-7.296127625,-0.230820007,7.862960298
9.487401792,-3.35347641,-6.467450867,0.813558197,7.330457127
9.497451792,-4.231849823,-5.878425751,0.848435669,7.292755674
9.507501792,-4.589156799,-5.360951843,0.649948425,7.08679037
9.517551792,-5.098996582,-4.953050079,-0.474513245,7.12443921
9.527601792,-5.226681061,-4.68151474,-0.611628113,7.043356027
9.537651792,-5.357658691,-4.627177734,-1.034947815,7.154466956
9.547701792,-5.380112,-4.78210556,-1.362167358,7.325956499
9.557752792,-5.22323822,-5.146896973,-1.556313629,7.496324304
9.567802792,-4.871769104,-5.798791351,-1.858535156,7.798350355
9.577852792,-4.263434143,-6.332431641,-1.441203003,7.7687597
9.587902792,-3.285667419,-6.793622589,-1.107097778,7.627226479
9.597952792,-2.452050934,-7.012168121,-0.788111115,7.470219185
9.608002792,-1.719324646,-7.053033142,-0.591270447,7.283608617
9.618052792,-1.120869141,-6.958130493,-0.449066162,7.062123477
9.628102792,-0.609682159,-6.753056946,-0.504450989,6.799261816
9.638152792,-0.356259155,-6.547684021,-0.401914215,6.569674395
9.648202792,-0.252824249,-6.403533783,-0.239202576,6.412985489
9.658253792,-0.126936035,-6.286626892,-0.399519196,6.300587752
9.668303792,0.034578094,-6.3289888,-0.828676758,6.383102697
9.678353792,0.143102417,-6.42374176,-1.189127197,6.534444123
9.688403792,0.157472534,-6.581363983,-1.418899384,6.734420906
9.698453792,0.056732025,-6.819818115,-1.550026703,6.99397744
9.708503792,-0.322878571,-7.189848633,-1.661395111,7.386366336
9.718553792,-1.023721161,-7.846982117,-1.934277649,8.146444831
9.728603792,-2.05462738,-8.753047943,-2.456391907,9.320472261
9.738653792,-3.393892365,-9.837991791,-3.637286224,11.02426591
9.748703792,-5.36484375,-10.95362183,-6.36177063,13.75628966
9.758753792,-8.398135986,-12.14259933,-11.43382324,18.67361027
9.768804792,-11.6228801,-13.16976334,-15.450271,23.39326574
9.778854792,-13.21511902,-13.32738556,-14.46277451,23.69452306
9.788904792,-13.6161351,-12.79853531,-10.74256073,21.55468052
9.798954792,-13.36899902,-11.80834442,-8.034841461,19.56337931
9.809004792,-11.97764236,-10.79165863,-6.036347351,17.21514746
9.819054792,-9.604926453,-10.37417679,-3.927083588,14.67310948
9.829104792,-7.229366455,-10.70424042,-2.903512115,13.23914215
9.839154792,-5.50644928,-11.57228531,-3.323388977,13.23947451
9.849204792,-3.429368591,-12.65154099,-3.292852478,13.51535925
9.859254792,-1.306034088,-13.14686096,-2.832260284,13.51174957
9.869305792,-0.17318985,-13.13024551,-2.294877777,13.33040907
9.879355792,0.570314026,-12.55963211,-2.37062027,12.79411807
9.889405792,1.573976898,-11.49818939,-2.938239899,11.97159205
9.899455792,2.225571899,-10.23002655,-2.270777893,10.71275155
9.909505792,1.613943787,-8.904981995,0.230370941,9.052987885
9.919555792,0.938099213,-7.405101013,1.995350647,7.726381776
9.929605792,0.59561142,-6.338269501,2.373015289,6.794086752
9.939655792,0.403411102,-5.501958618,1.882185974,5.828971881
9.949705792,0.228724365,-4.896168365,1.279688873,5.065805278
9.959755792,0.194295959,-5.025948486,0.694555664,5.077432095
9.969805792,0.125439148,-5.90072937,0.084873505,5.90267275
9.979856792,-0.326171722,-7.360942841,-0.169747009,7.370120863
9.989906792,-1.445843353,-9.129215698,0.182171173,9.244794676
9.999956792,-2.704575806,-10.73148376,0.826880493,11.09789194
10.01000679,-3.864663391,-11.80819473,1.671873322,12.53651652
10.02005679,-4.751569061,-12.2107077,2.471510468,13.33368498
10.03010679,-5.242697754,-11.7369429,2.635120239,13.12194982
10.04015679,-5.238356781,-10.72384964,2.124082947,12.12241978
10.05020679,-4.749772797,-9.845326538,1.31396759,11.00987316
10.06025679,-4.139192505,-9.120234375,0.250279541,10.018694
10.07030679,-3.767964478,-8.617579651,-0.525557098,9.420002421
10.08035779,-3.628155212,-8.407566376,-1.04602478,9.216553068
10.09040779,-3.667673035,-8.52058136,-1.595382385,9.412617976
10.10045779,-3.748055878,-8.719218292,-1.823957062,9.664342184
10.11050779,-3.609144745,-8.789871368,-2.037263489,9.717932238
10.12055779,-3.208278351,-8.660390625,-2.222278748,9.499154625
10.13060779,-2.956950989,-8.542435913,-2.1658461,9.295572054
10.14065779,-2.781066742,-8.495583344,-2.004930725,9.161278065
10.15070779,-2.507286072,-8.363108826,-1.773511963,8.90917602
10.16075779,-2.333497467,-8.27134964,-1.426084442,8.71172498
10.17080779,-2.224224701,-8.290809174,-0.943488007,8.635673795
10.18085879,-2.050436096,-8.239915009,-0.449814606,8.503106533
10.19090879,-1.807940369,-8.233029327,-0.077838135,8.429559838
10.20095879,-1.568139038,-8.308173065,0.284857635,8.459665691
10.21100871,-1.584904175,-8.404422913,0.584384766,8.572499711
10.22105871,-1.919757843,-8.524622955,0.834664307,8.777888767
10.23110871,-2.120939484,-8.664581909,0.989741821,8.975129683
10.24115871,-2.245779877,-8.849746857,0.998723145,9.184715271
10.25120871,-2.411784668,-9.005872192,0.839604034,9.360949426
10.26125871,-2.627486115,-9.217232666,0.594264221,9.602823088
10.27130871,-2.952610016,-9.438322906,0.302371216,9.894001897
10.28135871,-3.285068665,-9.606273651,0.072000275,10.15270179
10.29140971,-3.428620148,-9.557774506,-0.105380859,10.15468339
10.30145971,-3.33940567,-9.346563721,-0.543519745,9.940085378
10.31150971,-3.206182709,-9.139095154,-1.049766998,9.74190323
10.32155971,-3.094514923,-8.96635437,-1.291214905,9.572814071
10.33160971,-3.031196594,-8.892258453,-1.486259308,9.511539304
10.34165971,-3.030148773,-8.921747131,-1.609303436,9.558725386
10.35170971,-3.056943054,-8.924142151,-1.680704956,9.581752612
10.36175971,-3.162623291,-8.844507751,-1.629062347,9.533170909
10.37180971,-3.570824432,-8.788673859,-1.44150238,9.595285532
10.38185971,-4.328399048,-8.779542847,-1.071322174,9.846986448
10.39191071,-5.082530823,-8.85753067,-0.613424377,10.23055515
10.40196071,-5.614674225,-8.897796936,-0.194445648,10.52298276
10.41201071,-5.96389801,-8.999585266,0.098195801,10.79677067
10.42206071,-6.176306305,-9.176667023,0.234412537,11.06403753
10.43211071,-6.383176117,-9.434580688,0.217946777,11.39314491
10.44216071,-6.702462158,-9.660311279,0.143102417,11.75861775
10.45221071,-6.973099365,-9.862391052,0.089364166,12.07885996
10.46226071,-7.191195831,-10.20877075,-0.401764526,12.49374694
10.47231071,-7.377109222,-10.58957886,-1.410816193,12.98273173
10.48236071,-7.176226959,-10.49692154,-2.776875458,13.01516932
10.49241071,-6.681056671,-10.27238846,-4.522245941,13.06174534
10.50246171,-6.206244049,-10.66696793,-7.786058807,14.59192865
10.51251171,-5.672753448,-11.53531219,-11.50402725,17.250687
10.52256171,-5.870492249,-12.63986526,-8.514893188,16.33194046
10.53261171,-6.945107574,-13.56658813,-3.084785156,15.55000747
10.54266171,-6.631809082,-13.82090927,-0.570613403,15.34027459
10.55271171,-4.807702332,-13.5564093,-0.122295685,14.38419936
10.56276171,-2.637515259,-13.46330292,-0.958756256,13.75268067
10.57281171,-1.358724518,-14.04155045,-1.778601379,14.21881479
10.58286171,-0.421373749,-14.45708633,-2.19279007,14.62850742
10.59291171,0.002095642,-15.61313232,-2.040406952,15.74589362
10.60296171,0.667462006,-16.93967377,-1.486858063,17.01789646
10.61301271,1.399739227,-17.67733978,-1.074315948,17.76518411
10.62306271,1.353335724,-17.08202774,-0.34054184,17.1389369
10.63311271,0.813707886,-14.82606903,1.825903015,14.96022611
10.64316271,0.458197174,-12.00473602,4.050726471,12.67801312
10.65321271,-0.37676651,-9.777517548,4.171824646,10.63700725
10.66326271,-1.152303772,-8.454269257,3.091670837,9.075290696
10.67331271,-1.763482819,-7.410340118,1.672921143,7.79882539
10.68336271,-2.47824646,-6.727460175,0.02694397,7.169459665
10.69341271,-3.032992859,-6.103108521,-1.295555878,6.937250488
10.70346271,-3.593726807,-5.448370056,-1.699565735,6.744489033
10.71351371,-3.909570007,-4.848417664,-0.954115906,6.300970453
10.72356371,-4.214186554,-4.443809052,-0.36973114,6.135430573
10.73361371,-4.445006561,-4.212390289,-0.346080322,6.133684608
10.74366371,-4.738695831,-4.037404175,-0.150586853,6.227242331
10.75371371,-4.741539917,-4.03216507,-0.335901489,6.23324841
10.76376371,-4.451892242,-4.358935547,-0.577349396,6.257235489
10.77381371,-3.888463898,-4.923262024,-0.706830139,6.313340581
10.78386371,-2.854863281,-5.533992004,-0.695603485,6.26571433
10.79391371,-1.962119751,-6.082601166,-0.346679077,6.40063569
10.80396371,-1.348545685,-6.477779388,0.069904633,6.617030144
10.81401371,-0.966839447,-6.763684845,0.430205383,6.845968731
10.82406471,-0.557141418,-7.047494659,0.545166321,7.090472047
10.83411471,0.076341248,-7.213499451,0.269739075,7.218944624
10.84416471,0.681832123,-7.317383423,0.233664093,7.352794986
10.85421471,1.215622101,-7.31184494,0.077389069,7.412611051
10.86426471,1.570683746,-7.242089996,0.006286926,7.410462501
10.87431471,1.809886322,-7.17023941,-0.215102692,7.398262693
10.88436471,1.938169556,-7.136260071,-0.494870911,7.411316094
10.89441471,2.018851776,-7.116800537,-0.750090179,7.4355395
10.90446471,1.977687378,-7.250322876,-1.039288788,7.586735158
10.91451471,1.63699585,-7.579488373,-1.307830353,7.86376625
10.92456571,0.830023956,-8.356073456,-2.00433197,8.633090409
10.93461571,-0.919986877,-9.797276459,-3.993844757,10.61997165
10.94466571,-4.000880127,-11.52318741,-9.356892242,15.3734291
10.95471571,-9.441616058,-13.65101257,-19.26583649,25.42964242
10.96476571,-14.24363022,-14.95824417,-20.91750183,29.39680175
10.97481571,-14.30051193,-14.26728104,-13.2525412,24.15967297
10.98486571,-14.21144714,-13.19835388,-8.553063812,21.19709121
10.99491571,-13.89829834,-11.92210785,-6.126909027,19.30902293
11.00496571,-12.60663437,-10.5093457,-3.406915283,16.76247741
11.01501571,-10.30921188,-9.427096252,-1.739532623,14.07749861
11.02506571,-7.271878052,-8.617280273,-1.944157104,11.44191752
11.03511671,-4.687502289,-8.266110535,-2.124981079,9.737392139
11.04516671,-2.928210754,-8.569080505,-1.094673615,9.121505865
11.05521671,-2.693049774,-9.459878082,0.143551483,9.83678898
11.06526671,-2.663860474,-10.77130096,1.033001862,11.14379513
11.07531671,-1.975292358,-12.70078857,-0.35221756,12.85829956
11.08536671,-0.972228241,-14.5942012,-4.305646362,15.24711537
11.09541671,-0.776585083,-15.00913834,-4.049828339,15.56529561
11.10546671,0.43993515,-12.18496124,-0.466430054,12.20181873
11.11551671,1.285826111,-9.186696167,-0.563877411,9.293368226
11.12556671,1.674717407,-7.10123291,-2.795137482,7.813128745
11.13561671,1.210832062,-5.816753998,-2.273322601,6.361504303
11.14566771,-0.114811249,-5.819598083,1.177900543,5.938716458
11.15571771,-0.809815979,-6.197861481,2.278561707,6.65290405
11.16576771,-1.594484253,-6.767876129,3.334465942,7.711367612
11.17581771,-2.393522644,-7.750732269,4.118984528,9.0977379
11.18586771,-2.932701416,-9.042545929,4.401297455,10.47567629
11.19591771,-3.422183533,-10.40606049,4.709955597,11.92397235
11.20596771,-3.818259888,-11.64847687,4.750371552,13.14656426
11.21601804,-4.18185379,-12.400513,3.942202148,13.66753751
11.22606804,-4.705764313,-12.32432144,2.492466888,13.42555429
11.23611804,-4.748874664,-11.84636536,1.260379028,12.82484846
11.24616904,-4.156257019,-11.19477036,0.487835541,11.95137395
11.25621904,-3.290607147,-10.21805145,-0.067359924,10.7350458
11.26626904,-2.535876617,-9.276958466,-0.471220093,9.628846087
11.27631904,-1.98442337,-8.58958786,-1.018332367,8.874455281
11.28636904,-1.67561554,-8.135282593,-1.51529892,8.443141662
11.29641904,-1.589394836,-7.791746979,-1.8791922,8.171221466
11.30646904,-1.523980865,-7.541617126,-2.04878952,7.96216334
11.31651904,-1.343605957,-7.427853699,-2.102527771,7.835745693
11.32656904,-1.121168518,-7.436236267,-1.927691345,7.763415652
11.33661904,-0.860410767,-7.532635803,-1.679507446,7.765413968
11.34666904,-0.596509552,-7.683522034,-1.443298645,7.840627875
11.35672004,-0.697998505,-7.952213287,-0.974024506,8.04199116
11.36677004,-0.840951233,-8.226143646,-0.49382309,8.283749122
11.37682004,-0.867296448,-8.579409027,-0.255818024,8.626929074
11.38687004,-0.980610809,-9.026229858,0.032033386,9.07939696
11.39692004,-1.291663971,-9.482930145,-0.024698639,9.570526108
11.40697004,-1.874102783,-9.822124786,-0.402812347,10.00742996
11.41702004,-2.608775024,-9.972861328,-0.991388397,10.35598963
11.42707004,-3.232078857,-9.963730316,-1.389560394,10.56660464
11.43712004,-3.786525879,-9.828411713,-1.643582153,10.6600571
11.44717004,-4.231700134,-9.655072174,-1.972897339,10.72473909
11.45722004,-4.391567688,-9.410331116,-2.136806488,10.60217621
11.46727104,-4.357139282,-9.119785309,-2.13306427,10.32981655
11.47732104,-4.315675507,-8.958720245,-1.976639557,10.13858114
11.48737104,-4.428241425,-8.88791748,-1.645228729,10.06534534
11.49742104,-4.723277893,-8.796607361,-1.187330933,10.05482023
11.50747104,-5.058131561,-8.769064636,-0.702489166,10.14764409
11.51752104,-5.34149231,-8.792565765,-0.203876038,10.28991342
11.52757104,-5.4690271,-8.760831757,0.214653625,10.32998096
11.53762104,-5.407205658,-8.662037201,0.51597702,10.22423561
11.54767104,-5.256618805,-8.728049927,0.64590683,10.20921605
11.55772104,-5.189109192,-8.868607635,0.617166595,10.29368497
11.56777104,-5.309608612,-9.044192505,0.585582275,10.50391681
11.57782204,-5.409900055,-9.296118622,0.375269623,10.76223338
11.58787204,-5.244793396,-9.443412323,-0.095052338,10.80254271
11.59792204,-4.906496887,-9.507030029,-0.893641663,10.73573133
11.60797204,-4.46506485,-9.418713684,-2.147434387,10.64238911
11.61802204,-4.106111298,-9.206305389,-3.722758484,10.74593596
11.62807204,-3.777245178,-9.100475464,-6.349795532,11.72203643
11.63812204,-3.459006958,-9.115444336,-14.6632077,17.60868294
11.64817204,-3.996838531,-9.932445374,-20.81810852,23.40986612
11.65822204,-5.552703094,-11.69218597,-10.24843826,16.50970052
11.66827204,-6.713838501,-12.60813126,-1.811832275,14.39872694
11.67832304,-6.773414612,-12.92726761,0.7617659,14.61416028
11.68837304,-6.774312744,-13.46150665,1.638642426,15.15878041
11.69842304,-6.637497253,-14.12238235,1.876348114,15.71682969
11.70847304,-6.616989899,-15.08997025,2.555635529,16.67402262
11.71852304,-6.797364807,-15.95097977,2.664908295,17.54251008
11.72857304,-6.519841919,-16.31696869,2.160906372,17.70370928
11.73862304,-5.041366425,-16.03121292,1.964963837,16.91969994
11.74867304,-3.665577393,-15.62181427,3.441643066,16.41104645
11.75872304,-3.076701965,-15.39398804,5.339845734,16.58176454
11.76877304,-3.225791931,-14.45978073,6.021977234,15.99234824
11.77882304,-4.376449127,-12.89134232,6.943760376,15.28253323
11.78887404,-6.383176117,-10.79824493,5.206024017,13.58122664
11.79892404,-7.498207397,-8.273744659,1.656156006,11.28808299
11.80897404,-7.837551727,-6.319857788,-0.143401794,10.06917989
11.81902404,-7.906558228,-5.149142303,-1.002165985,9.488501785
11.82907404,-7.610324249,-4.334087219,-0.634081421,8.78085454
11.83912404,-7.130571899,-3.875590668,-0.016016693,8.115757215
11.84917404,-6.913972321,-3.848646698,0.478255463,7.927409599
11.85922404,-6.430028687,-4.466861115,0.608634338,7.852932757
11.86927404,-4.678520966,-5.499563599,0.723595276,7.256538315
11.87932404,-2.716550903,-6.464157715,1.338516541,7.138389896
11.88937404,-1.851200409,-7.416327667,2.357297974,7.999106998
11.89942504,-1.641935577,-8.326584778,2.789748688,8.93368145
11.90947504,-1.546134796,-9.234895935,2.444865875,9.677355263
11.91952504,-1.184486847,-9.901759186,1.715881805,10.11889789
11.92957504,-0.70443512,-10.13497421,1.330133972,10.24613037
11.93962504,-0.210462341,-9.968969421,1.646426239,10.10620429
11.94967504,0.42122406,-9.619446259,1.889969788,9.812398373
11.95972504,0.803529053,-9.219028931,1.929637299,9.453023509
11.96977504,1.240021362,-8.737480316,1.461860046,8.945292061
11.97982504,1.584604797,-8.277337189,0.872535553,8.472697421
11.98987504,1.949845276,-7.861052856,0.950972443,8.154900195
11.99992604,2.705923004,-7.426805878,1.395697632,8.026670339
12.00997604,3.676055603,-7.005432129,1.3841716,8.031525081
12.02002604,4.22047348,-6.785838776,0.696950684,8.021579928
12.03007604,4.300556946,-6.81921936,-0.22468277,8.065173592
12.04012604,4.798271942,-6.645730133,-1.990859985,8.435203976
12.05017604,5.733976135,-6.312373352,-4.675078125,9.725270954
12.06022604,4.53526886,-6.797514496,-6.636898499,10.52726406
12.07027604,1.711091766,-7.891888733,-8.052804108,11.40427099
12.08032604,-0.806971893,-9.150770874,-9.88484436,13.49436769
12.09037604,-3.63429245,-10.69974976,-13.08219543,17.28688994
12.10042604,-6.670129395,-12.40889557,-16.20994125,21.47634771
12.11047704,-8.700956268,-13.47348175,-15.46583862,22.28078802
12.12052704,-9.184600525,-13.77241013,-11.32335297,20.05628305
12.13057704,-9.150770874,-13.48006805,-5.749992828,17.2774784
12.14062704,-9.639354858,-13.24894867,-1.64627655,16.46699819
12.15067704,-9.79248642,-12.80362473,-0.233664093,16.12080008
12.16072704,-9.906848602,-12.40530304,-0.631387024,15.88822968
12.17077704,-9.533674622,-12.01177139,0.154179382,15.33614603
12.18082704,-8.389304352,-11.27036316,1.930535431,14.18197731
12.19087704,-7.296277313,-10.5850882,2.088756409,13.02469416
12.20092704,-6.307733002,-10.14605118,0.698148193,11.96734144
12.21097704,-5.380561066,-10.50650162,-2.341281281,12.03406048
12.22102804,-4.964576111,-11.44774429,-4.637206879,13.31170737
12.23107804,-4.981940002,-11.34101624,-1.313817902,12.45650404
12.24112804,-3.649411011,-9.599837036,0.865799561,10.30653583
12.25117804,-2.491568756,-7.974516907,1.685794373,8.523070892
12.26122804,-2.208657074,-6.789431305,2.022294617,7.42052687
12.27127804,-1.786834259,-5.771548004,0.802780609,6.094915893
12.28132804,-0.86699707,-5.085674286,-1.621877289,5.407980474
12.29137804,-0.578995972,-5.668113098,-0.490080872,5.718646841
12.30142804,-0.545914764,-6.881789246,1.388961639,7.041751244
12.31147804,-0.666863251,-8.217012634,1.882934418,8.456325753
12.32152804,-1.401236115,-9.711804199,2.429897003,10.10875872
12.33157904,-2.39636673,-11.18519028,2.666255493,11.74563636
12.34162904,-3.186423798,-12.88700134,2.514022064,13.5110476
12.35167904,-3.206482086,-13.72241409,2.832859039,14.37397879
12.36172904,-2.721191254,-13.18069061,2.8970755,13.76693624
12.37177904,-2.28634552,-12.1045784,1.665736084,12.43072286
12.38182904,-2.311493225,-11.24551483,0.449066162,11.48939795
12.39187904,-2.57883728,-10.59077637,-0.396375732,10.90743139
12.40192904,-2.677631836,-9.755812683,-0.738564148,10.14352357
12.41197904,-2.468516693,-8.908574524,-0.706231384,9.271193962
12.42202904,-2.101180573,-8.195607147,-0.620759125,8.483411943
12.43207904,-1.69193161,-7.767347717,-0.564476166,7.969501645
12.44213004,-1.111887817,-7.645052032,-0.456849976,7.738981005
12.45218004,-0.565523987,-7.793692932,-0.390986938,7.823959208
12.46223004,-0.356708221,-8.055348816,-0.406554565,8.073485735
12.47228004,-0.409698029,-8.341403961,-0.492026825,8.365940647
12.48233004,-0.532293091,-8.588989105,-0.599503326,8.626324479
12.49238004,-0.63423111,-8.716074829,-0.611478424,8.760486025
12.50243004,-0.789009247,-8.820707245,-0.590821381,8.875611629
12.51248004,-1.077010345,-8.893605652,-0.592467957,8.978150759
12.52253004,-1.590592346,-8.963809662,-0.51837204,9.118584168
12.53258004,-2.146386566,-9.082363129,-0.440982971,9.342952492
12.54263004,-2.66071701,-9.150770874,-0.323926392,9.535247816
12.55268104,-3.020718384,-9.157207489,-0.15328125,9.643789903
12.56273104,-3.255729675,-9.095835114,-0.085023193,9.661326052
12.57278104,-3.399430847,-9.058412933,-0.276325378,9.679221594
12.58283104,-3.488795013,-9.051078186,-0.632734222,9.7208055
12.59288104,-3.576662292,-8.979377289,-0.950373688,9.712102748
12.60293104,-3.633843384,-8.872349854,-1.215921478,9.664464533
12.61298104,-3.534450073,-8.809480591,-1.420695648,9.597794628
12.62303104,-3.300187225,-8.799601135,-1.619631958,9.536635861
12.63308104,-3.014730835,-8.900191956,-1.672621765,9.544615363
12.64313104,-2.809208221,-9.071136475,-1.542093201,9.620562313
12.65318104,-2.739453278,-9.232949982,-1.288071442,9.716537329
12.66323204,-2.719694366,-9.382638702,-1.087787933,9.829238478
12.67328204,-2.771037598,-9.438322906,-0.976120148,9.885008811
12.68333204,-2.944377136,-9.353150024,-0.851579132,9.842558566
12.69338204,-3.078947296,-9.079519043,-0.830023956,9.623228267
12.70343204,-3.200344849,-8.755293274,-0.824335785,9.358252879
12.71348204,-3.569327545,-8.597970428,-0.678538971,9.334110014
12.72353204,-4.280348969,-8.740324402,-0.264799347,9.735747359
12.73358204,-5.213658142,-9.219028931,0.273181915,10.59468518
12.74363204,-6.273603973,-9.985734558,0.767005005,11.81783813
12.75368204,-7.401358795,-10.87713089,1.104702759,13.20274428
12.76373204,-8.533304901,-11.69922134,1.249900818,14.53448742
12.77378304,-9.583820343,-12.32941086,1.081950073,15.65358107
12.78383304,-10.38091278,-12.59885056,0.701441345,16.33971865
12.79388304,-10.61876816,-12.43703705,-0.161663818,16.35433468
12.80393304,-10.17748581,-11.71359146,-2.673889618,15.74608294
12.81398304,-8.75813736,-10.57895096,-9.029073944,16.43603814
12.82403304,-6.695426788,-9.832902374,-15.46299454,19.50945691
12.83408304,-5.775290222,-10.38675064,-10.21386017,15.67040221
12.84413304,-5.486390991,-11.40538239,-3.355871429,13.09370484
12.85418304,-4.616549835,-12.20921082,0.042212219,13.05293618
12.86423304,-3.250191193,-12.66965332,1.174008636,13.1324847
12.87428404,-1.989812164,-13.07590851,1.972448273,13.37270683
12.88433404,-0.885408783,-13.3932486,2.324815521,13.62232814
12.89438404,-0.00583786,-13.64352814,2.524649963,13.8751487
12.90443404,0.50894165,-14.34392166,2.392175446,14.55093171
12.91448404,0.564925232,-14.92127106,2.128274231,15.0828718
12.92453404,-0.02694397,-14.4124791,0.694705353,14.42923751
12.93458404,-1.057850189,-12.78431488,-1.783690796,12.95142104
12.94463404,-0.370180206,-11.22515717,0.578247528,11.2461352
12.95468404,0.617615662,-10.07120682,3.897295532,10.81663387
12.96473404,0.541424103,-9.127718811,4.140839081,10.03767598
12.97478404,-0.290695496,-8.794811096,1.746118927,8.971183723
12.98483404,-1.667083282,-8.51818634,-0.59561142,8.700196444
12.99488504,-2.225422211,-7.789351959,-1.429227905,8.226129124
13.00493504,-2.705623627,-6.739584961,-1.623074799,7.441557395
13.01498504,-3.084036713,-5.974226532,-0.716859283,6.761401654
13.02503504,-3.659739532,-5.361700287,-0.171543274,6.493916423
13.03508504,-4.269272003,-5.134472809,-0.434995422,6.691690032
13.04513504,-5.065615997,-5.030439148,-0.475561066,7.154854421
13.05518504,-5.580545197,-5.240751801,-0.527053986,7.673705104
13.06523504,-5.425617371,-5.760471039,-0.675694885,7.942097583
13.07528504,-4.199966125,-6.325995026,-0.701441345,7.625611351
13.08533504,-1.909129944,-6.592590637,-0.461789703,6.878973629
13.09538504,-0.68452652,-6.81457901,-0.030237122,6.848939912
13.10543604,-0.255818024,-7.042554932,-0.09475296,7.047836615
13.11548604,0.183218994,-7.145840149,-0.298928375,7.154436303
13.12553604,0.70907547,-7.160359955,-0.401465149,7.206574566
13.13558604,1.245709534,-7.04045929,-0.496816864,7.167055619
13.14563604,1.642534332,-6.828500061,-0.460442505,7.038347776
13.15568604,1.963317261,-6.610253906,-0.457149353,6.910792784
13.16573604,2.217039642,-6.391858063,-0.508193207,6.784495162
13.17578604,2.453098755,-6.249354401,-0.596359863,6.740012538
13.18583604,2.64559845,-6.225853271,-0.625100098,6.793466733
13.19588604,2.567011871,-6.597230988,-0.79335022,7.123370777
13.20593704,1.855691071,-7.447462921,-1.365011444,7.795610916
13.21598654,0.475710754,-8.895850983,-2.908451843,9.371315679
13.22603654,-1.797162781,-10.72429871,-5.898184662,12.37048742
13.23608654,-5.391188965,-12.65378632,-11.08489883,17.66516937
13.24613654,-9.850565643,-14.58162735,-16.88114548,24.38504813
13.25618654,-13.1582373,-14.79673004,-17.09415253,26.15898468
13.26623654,-14.55558151,-13.85384079,-10.78357544,22.80524845
13.27628654,-15.22633667,-12.6792334,-6.707850952,20.91888028
13.28633654,-15.6174733,-11.47992737,-4.728966064,19.951374
13.29638654,-14.47370178,-10.3355571,-2.826422424,18.00834383
13.30643654,-11.15914444,-9.074429626,-2.650687866,14.62524953
13.31648754,-8.771160278,-9.261540527,-2.898871765,13.08101078
13.32653754,-7.339687042,-10.68762497,-1.307980042,13.03100707
13.33658754,-6.197412415,-11.95773376,0.692759399,13.4861126
13.34663754,-5.079836426,-12.42221786,2.406395874,13.63477084
13.35668754,-3.653302917,-12.37701187,2.983146515,13.24523341
13.36673754,-2.361788635,-12.03542221,2.354004822,12.48882589
13.37678754,-0.99692688,-11.22081619,1.341360626,11.34459464
13.38683754,0.437540131,-9.718091125,-0.473615112,9.739458289
13.39688754,1.497635651,-7.86644165,-1.91781189,8.234186009
13.40693754,3.400927734,-5.971681824,-6.417454834,9.402713428
13.41698754,4.599185944,-4.572990417,-8.901688843,11.0138466
13.42703854,2.734663239,-4.742288361,-2.940784607,6.214168973
13.43708854,0.970132599,-5.918542328,2.128124542,6.363899325
13.44713854,0.383652191,-6.911876678,2.307002563,7.296813623
13.45718854,-0.688867493,-8.198002167,2.797981567,8.689676565
13.46723854,-1.851499786,-9.595496063,3.317401428,10.32021068
13.47728854,-2.940335541,-10.9645491,3.935915222,12.0149215
13.48733854,-3.624412994,-12.25621307,4.600383453,13.58361721
13.49738854,-3.68578537,-13.1396759,4.615801392,14.40630831
13.50743854,-3.577710114,-12.6247467,3.159030762,13.49680386
13.51748854,-3.597169647,-11.71074738,1.59478363,12.35413163
13.52753854,-3.451672211,-11.1052565,0.581989746,11.64385997
13.53758954,-3.049757996,-10.29813492,-0.065413971,10.74043228
13.54763954,-2.574795685,-9.444759521,-0.450263672,9.799785335
13.55768954,-2.238594818,-8.766370239,-0.783021698,9.081501908
13.56773954,-2.022593994,-8.352630615,-1.373992767,8.703170732
13.57778954,-2.03247345,-8.224048004,-1.934427338,8.689529505
13.58783954,-2.194736023,-8.181985474,-2.243384857,8.763248719
13.59788954,-2.202669525,-8.13558197,-2.444416809,8.775797432
13.60793954,-2.032922516,-8.029003601,-2.489772491,8.648505064
13.61798954,-1.691183167,-7.831264801,-2.386786652,8.359758334
13.62803954,-1.309776306,-7.622748413,-2.146985321,8.026914308
13.63808954,-1.038839722,-7.49207016,-1.586251373,7.728291963
13.64814054,-0.971479797,-7.636669464,-0.915945282,7.752512448
13.65819054,-1.221010895,-7.951764221,-0.302969971,8.050665354
13.66824054,-1.578018494,-8.363857269,0.272433472,8.515777756
13.67829054,-1.880838776,-8.66562973,0.661773834,8.892054753
13.68834054,-2.271825714,-8.840316467,0.965043182,9.17843645
13.69839054,-2.790796509,-8.92653717,1.034049683,9.409615813
13.70844054,-3.307971039,-9.027277679,0.824635162,9.649582263
13.71849054,-3.641178131,-9.133856049,0.462837524,9.843765696
13.72854054,-3.761976929,-9.261839905,-0.089962921,9.997111691
13.73859054,-3.83322876,-9.329798584,-0.701441345,10.110925
13.74864154,-3.861370239,-9.31153656,-1.283131714,10.16175773
13.75869154,-3.847898254,-9.212891693,-1.750908966,10.13653671
13.76874154,-3.870800629,-9.155111847,-2.070943451,10.15322497
13.77879154,-3.866908722,-9.082812195,-2.180515594,10.10965423
13.78884154,-3.772455139,-9.046737213,-2.117496643,10.0278943
13.79889154,-3.642375641,-9.051078186,-1.871707764,9.93439513
13.80894154,-3.723806305,-9.079369354,-1.430275726,9.917024247
13.81899154,-3.978127441,-9.081764374,-0.863853607,9.952395949
13.82904154,-4.240980835,-9.05182663,-0.337248688,10.00176087
13.83909154,-4.293222198,-8.914113007,0.0690065,9.894338252
13.84914154,-4.320465546,-8.689130859,0.425415344,9.713310241
13.85919254,-4.557123413,-8.631500702,0.782722321,9.791977962
13.86924254,-5.025948486,-8.856782227,1.054856415,10.23794275
13.87929254,-5.609734497,-9.195378113,1.189127197,10.83688716
13.88934254,-6.351142731,-9.676926727,1.121767273,11.62919974
13.89939254,-7.074588318,-10.23406815,0.854423218,12.47060503
13.90944254,-7.591912537,-10.83402054,0.307610321,13.23282892
13.91949254,-7.895032196,-11.23653351,-0.769250336,13.75437984
13.92954254,-7.591014404,-10.82324295,-2.57419693,13.46820617
13.93959254,-6.858587494,-10.00923569,-4.517904968,12.94745098
13.94964254,-6.221212921,-9.759105835,-8.182584229,14.1738605
13.95969254,-5.791306915,-10.56473053,-15.26076508,19.44334636
13.96974354,-6.457122345,-12.21489899,-11.60147461,18.04140791
13.97979354,-7.814050598,-13.43890366,-3.109633484,15.8534961
13.98984354,-7.609875183,-13.64128281,0.75817337,15.63872194
13.99989354,-5.821544037,-13.11662384,1.864223328,14.47105817
14.00994354,-3.851041718,-12.63717087,1.575473785,13.30453785
14.01999354,-2.524799652,-12.84898041,0.825682983,13.12069599
14.03004354,-1.823358307,-13.40447525,0.220341797,13.52971333
14.04009354,-1.26247467,-14.21818314,-0.34982254,14.27840852
14.05014354,-0.597257996,-15.54472458,-0.474064178,15.56341596
14.06019354,0.012573853,-16.96751587,0.122744751,16.9679645
14.07024354,-0.447718964,-17.83915329,-0.573008423,17.85396821
14.08029454,-1.229992218,-16.97260529,-2.606230316,17.21553506
14.09034454,-0.440533905,-14.2756636,-0.738115082,14.30151934
14.10039454,0.12633728,-11.83483932,1.5328125,11.93435784
14.11044454,0.477057953,-9.89187973,3.789519653,10.60364692
14.12049454,-0.40131546,-8.702303467,4.586462402,9.84513977
14.13054454,-2.08037384,-7.805817719,3.145558777,8.669099468
14.14059454,-3.066672821,-6.959926758,0.616567841,7.630545103
14.15064454,-3.236719208,-5.970484314,-2.19159256,7.136253367
14.16069454,-3.213517456,-5.065466309,-2.415227509,6.466758638
14.17074454,-3.351231079,-4.398902435,-1.164428558,5.651281823
14.18079454,-3.852837982,-4.049528961,-0.905766449,5.662460436
14.19084554,-4.425097961,-4.052373047,-0.856219482,6.061050328
14.20089554,-4.935087433,-4.101620636,-0.625698853,6.447470734
14.21094554,-5.07115448,-4.356839905,-0.570912781,6.71003749
14.22099571,-4.667144623,-4.811294861,-0.367635498,6.713117981
14.23104571,-3.562591553,-5.35197052,-0.143102417,6.430872827
14.24109571,-2.132166138,-5.771398315,0.20357666,6.156022613
14.25114571,-0.890049133,-5.986800385,0.314196625,6.060749609
14.26119571,-0.108674011,-6.059249725,0.313298492,6.068317165
14.27124571,0.547411652,-6.143075409,0.232616272,6.171802437
14.28129571,1.071022797,-6.30788269,0.277672577,6.404184251
14.29134671,1.593735809,-6.575975189,0.431402893,6.780084953
14.30139671,2.02304306,-6.832990723,0.479452972,7.142292391
14.31144671,2.278861084,-7.042105865,0.446521454,7.415109188
14.32149671,2.433190155,-7.140601044,0.262554016,7.548346323
14.33154671,2.441123657,-7.170688477,0.134270782,7.576007298
14.34159671,2.241588593,-7.204069061,0.11466156,7.545626398
14.35164671,1.76917099,-7.394323425,0.147293701,7.604451351
14.36169671,0.801732788,-8.116571503,-0.113913116,8.156867329
14.37174671,-0.398471375,-9.605525208,-1.376238098,9.711793102
14.38179671,-1.860630798,-11.72871002,-4.345613251,12.64551068
14.39184671,-4.941973114,-13.97868118,-10.77025314,18.32552806
14.40189771,-9.957742767,-16.36142624,-19.33020264,27.21230684
14.41194771,-14.09319305,-16.64538574,-19.52569611,29.27353353
14.42199771,-15.35641617,-14.8557074,-13.89710083,25.48805546
14.43204771,-15.96639771,-13.17126022,-10.6726561,23.28762632
14.44209771,-15.68588104,-11.35688324,-6.699767761,20.49176784
14.45214771,-13.99245255,-9.704619141,-2.888094177,17.27163712
14.46219771,-10.33495834,-8.410709839,-2.007325745,13.47519056
14.47224771,-7.768096161,-8.05370224,-2.120640106,11.38870283
14.48229771,-6.384074249,-8.593629456,-0.75937088,10.73235833
14.49234771,-5.660029907,-9.53741684,1.62756546,11.20924743
14.50239771,-5.182223511,-10.13108231,3.683839417,11.9609758
14.51244871,-4.28364212,-10.24289978,4.142036591,11.85002333
14.52249871,-2.879112854,-10.60080551,3.523971863,11.53623621
14.53254871,-1.630559235,-11.12441666,2.336491241,11.48349079
14.54259871,-0.671503601,-11.29805557,1.462159424,11.41205008
14.55264871,0.237256622,-10.6978038,0.968186646,10.74414642
14.56269871,1.211730194,-9.579329681,0.137114868,9.656637494
14.57274871,2.253713379,-8.193810883,-1.550176392,8.638333614
14.58279871,4.169130249,-6.609954529,-6.474785614,10.14869423
14.59284871,5.582940216,-5.266049194,-10.0355809,12.63381888
14.60289871,3.717968445,-5.996230774,-4.610562286,8.428247591
14.61294971,1.458716583,-7.913593597,0.200283508,8.049405641
14.62299971,0.117505646,-9.369615784,1.396895142,9.473902234
14.63304971,-1.140178986,-10.32927017,2.251617737,10.63313749
14.64309971,-2.267185364,-10.92892319,2.772085419,11.50069342
14.65314971,-3.047063599,-11.32050888,2.969524841,12.09365932
14.66319971,-3.437900848,-11.31018036,3.058140564,12.21030572
14.67324971,-3.586841125,-10.83596649,3.052602081,11.81532812
14.68329971,-3.755390625,-10.37253021,2.566263428,11.32599001
14.69334971,-3.861519928,-10.03857468,1.949994965,10.93100169
14.70339971,-3.723806305,-9.738149414,1.277443542,10.50381595
14.71344971,-3.51139801,-9.361382904,0.675395508,10.02105608
14.72350071,-3.458408203,-8.963510284,-0.026794281,9.607591886
14.73355071,-3.549568634,-8.811725922,-0.741707611,9.52869778
14.74360071,-3.714076538,-8.729097748,-1.084943848,9.548225761
14.75365071,-3.774999847,-8.657546539,-1.365610199,9.542988376
14.76370071,-3.620820465,-8.418942719,-1.551224213,9.294903652
14.77375071,-3.162922668,-8.049211578,-1.616638184,8.798147865
14.78380071,-2.578986969,-7.735763397,-1.626966705,8.31506042
14.79385071,-2.145488434,-7.567513275,-1.607058105,8.02826342
14.80390071,-1.979184265,-7.644303589,-1.52457962,8.042194398
14.81395071,-2.087858276,-7.963439941,-1.432670746,8.356319366
14.82400071,-2.192341003,-8.369246063,-1.359772339,8.757831898
14.83405171,-2.22901474,-8.723259888,-1.297801208,9.096595943
14.84410171,-2.174228668,-8.933123474,-1.192719727,9.270951712
14.85415171,-2.208806763,-9.099876709,-0.985400848,9.415816389
14.86420171,-2.372416534,-9.248667297,-0.64590683,9.569921767
14.87425171,-2.65727417,-9.334738312,-0.254171448,9.708915928
14.88430171,-3.048560486,-9.322014771,-0.136067047,9.808781507
14.89435171,-3.259471893,-9.031319275,-0.57570282,9.618748287
14.90440171,-3.20019516,-8.526119843,-0.880768433,9.149411001
14.91445171,-3.246898041,-8.251890106,-1.169368286,8.944465294
14.92450171,-3.411555634,-8.176896057,-1.39943985,8.96988143
14.93455271,-3.581003265,-8.140671387,-1.522184601,9.022813362
14.94460271,-3.708837433,-8.033943329,-1.548978882,8.983265336
14.95465271,-3.915707245,-7.967930603,-1.546134796,9.011726479
14.96470271,-4.302502899,-8.048463135,-1.376836853,9.229570399
14.97475271,-5.001549225,-8.307873688,-0.995579681,9.748201822
14.98480271,-5.788163452,-8.577313385,-0.476010132,10.35855814
14.99485271,-6.36521347,-8.537196808,-0.007783813,10.64893105
15.00490271,-6.675667877,-8.32987793,0.289198608,10.6787192
15.01495271,-6.859934692,-8.228987732,0.485739899,10.72431286
15.02500271,-7.072792053,-8.501271515,0.535436554,11.07170705
15.03505271,-7.416477356,-9.126072235,0.312550049,11.76380119
15.04510371,-7.955057373,-9.991273041,-0.155376892,12.77233795
15.05515371,-8.774303741,-11.06738525,-0.620310059,14.13719233
15.06520371,-9.489965515,-12.2306163,-1.011296997,15.51354706
15.07525371,-9.177864532,-12.96753387,-2.412233734,16.06888309
15.08530371,-7.165149994,-12.42506195,-5.691165161,15.43084249
15.09535371,-3.833827515,-11.41256744,-13.56030121,18.13357929
15.10540371,-1.580114136,-11.7170343,-17.60189667,21.20406611
15.11545371,-2.238894196,-13.45432159,-10.44557831,17.17968344
15.12550371,-2.500550079,-14.74508743,-3.3920961,15.33547098
15.13555371,-1.314266968,-15.08383301,-0.092807007,15.14126577
15.14560371,0.50310379,-15.01198242,0.125439148,15.02093421
15.15565471,1.976938934,-15.05015305,-0.622555389,15.19220094
15.16570471,2.864293671,-15.47467026,-1.314716034,15.79234232
15.17575471,2.15761322,-16.65137329,-1.387614441,16.84781888
15.18580471,1.089135132,-17.34353394,-0.403111725,17.38237279
15.19585471,0.897234192,-15.94693817,0.772842865,15.99084589
15.20590471,0.5043013,-13.44055023,2.119143219,13.61592738
15.21595517,-0.775237885,-11.13414642,1.603615265,11.27571693
15.22600517,-1.668280792,-9.546398163,-1.154549103,9.759603594
15.23605517,-2.097737732,-8.453371124,-1.70360733,8.874810696
15.24610517,-2.326911163,-7.530839539,-0.7816745,7.920800133
15.25615617,-2.439926147,-6.920408936,0.024249573,7.337975707
15.26620617,-2.587668915,-6.189329224,0.655935974,6.740480595
15.27625617,-3.248245239,-5.586083679,0.584684143,6.488241946
15.28630617,-4.045487366,-5.044958954,-0.092357941,6.467310791
15.29635617,-4.527784424,-4.563410339,-0.483494568,6.446651279
15.30640617,-4.882846069,-4.28483963,-0.795445862,6.544827768
15.31645617,-4.643044739,-4.181554413,-0.993783417,6.326995119
15.32650617,-3.812571716,-4.17137558,-1.24376358,5.786451863
15.33655617,-2.007475433,-3.974983978,-1.685644684,4.761496954
15.34660617,-0.316891022,-3.681594086,-1.980531464,4.192500425
15.35665617,0.515228577,-3.674858093,-2.004631348,4.217652111
15.36670717,0.786015472,-3.980971527,-1.980082397,4.515161229
15.37675717,0.812210999,-4.135899353,-1.94236084,4.64091756
15.38680717,0.563428345,-4.340823212,-1.852397919,4.753059615
15.39685717,0.328566742,-4.628225555,-1.7703685,4.966148661
15.40690717,0.344733124,-5.056934052,-1.704355774,5.347546309
15.41695717,0.524958344,-5.698799286,-1.588496704,5.939294263
15.42700717,0.612226868,-6.619085541,-1.698218536,6.860835323
15.43705717,0.523760834,-8.020621033,-2.267933807,8.351539434
15.44710717,0.407901764,-9.923314362,-3.709286499,10.60176203
15.45715717,-0.515827332,-12.40934464,-5.409600677,13.54701781
15.46720717,-3.448828125,-15.06631943,-7.232958984,17.06470311
15.47725817,-7.472910004,-16.71005127,-8.933123474,20.36837972
15.48730817,-10.34858002,-16.82216812,-9.070238342,21.73356097
15.49735817,-11.24162292,-15.90951599,-9.00961441,21.46298993
15.50740817,-10.46369064,-14.45169754,-9.257349243,20.10071886
15.51745817,-8.569379883,-12.94552963,-9.127419434,18.00918639
15.52750817,-5.8445961,-11.82885178,-5.836961975,14.42744478
15.53755817,-3.980223083,-11.69697601,-0.299078064,12.35924234
15.54760817,-3.324287109,-11.9851268,1.728305969,12.55711713
15.55765817,-2.203867035,-12.06371338,-2.690205688,12.55497579
15.56770817,1.387464752,-10.71726334,-5.600603485,12.17175218
15.57775917,3.653452606,-8.681796112,-5.725443878,11.02279489
15.58780917,4.325554962,-7.388784943,-1.446741486,8.683180845
15.59785917,3.290457458,-7.384743347,2.945275269,8.604428569
15.60790917,2.155218201,-7.686366119,3.837420044,8.857255907
15.61795917,1.701661377,-8.140521698,3.040776672,8.854945947
15.62800917,1.712588654,-9.011710052,3.358715515,9.768564269
15.63805917,1.92948761,-10.18676651,3.881278839,11.07056728
15.64810917,1.915267181,-11.37260056,4.468657379,12.36823312
15.65815917,1.536854095,-12.26294907,5.207670593,13.41125174
15.66820917,0.727337494,-12.40575211,5.822142792,13.72330324
15.67826017,-0.862805786,-11.75610306,5.953569489,13.20588439
15.68831017,-3.634591827,-11.18998032,2.195185089,11.96849008
15.69836017,-6.784790955,-10.66157913,-3.872746582,13.21744393
15.70841017,-8.241711273,-10.06671616,-3.002007294,13.35202706
15.71846017,-8.729397125,-9.706714783,0.596509552,13.06822519
15.72851017,-9.077124023,-9.569450226,2.548899536,13.43374285
15.73856017,-9.193282471,-9.69414093,2.453398132,13.58351845
15.74861017,-8.582851868,-9.795629883,0.972826996,13.06009584
15.75866017,-7.813751221,-9.599238281,0.315992889,12.3814351
15.76871017,-7.541317749,-9.441316681,-0.038470001,12.08351828
15.77876017,-6.798412628,-8.967701569,-0.674647064,11.27356352
15.78881117,-5.010829926,-8.130193176,-1.501527557,9.667628594
15.79886117,-3.371439056,-7.531438293,-2.411784668,8.596852294
15.80891117,-2.127525787,-7.263196106,-3.190465393,8.213370385
15.81896117,-1.426683197,-7.2977742,-3.368145905,8.163169731
15.82901117,-1.05425766,-7.543712769,-2.950214996,8.168404377
15.83906117,-0.949774933,-7.95191391,-2.204615479,8.306343158
15.84911117,-1.003213806,-8.44798233,-1.604363708,8.657299019
15.85916117,-1.523082733,-8.973240051,-1.313368835,9.195855356
15.86921117,-2.388433228,-9.410480804,-1.0577005,9.766293698
15.87926117,-3.233426056,-9.679770813,-0.804876251,10.23722779
15.88931117,-3.907025299,-9.834848328,-0.682730255,10.60449004
15.89936217,-4.418960724,-9.81583786,-0.439486084,10.77362682
15.90941217,-4.769382019,-9.598639526,0.058827667,10.71841156
15.91946217,-4.92835144,-9.386530609,0.432151337,10.61048348
15.92951217,-4.845124512,-9.233698425,0.477806396,10.43861663
15.93956217,-4.456233215,-9.232201538,0.417781219,10.25992694
15.94961217,-3.888763275,-9.378597107,0.440384216,10.1624063
15.95966217,-3.240611115,-9.564061432,0.559985504,10.11367467
15.96971217,-2.676883392,-9.747579803,0.783171387,10.13875605
15.97976217,-2.087558899,-9.82407074,0.982407074,10.09135232
15.98981217,-1.463955688,-9.8697258,1.029259644,10.03065447
15.99986317,-0.871188354,-9.890382843,1.071920929,9.986373536
16.00991317,-0.105829926,-9.785151672,1.11862381,9.849452394
16.01996317,0.664468231,-9.664203186,1.100661163,9.749348504
16.03001317,1.885628815,-9.460626526,0.374221802,9.653967694
16.04006317,3.785777435,-9.271419983,-1.963167572,10.2051637
16.05011317,4.42180481,-9.502090302,-2.111658783,10.69117303
16.06016317,3.537294159,-10.02674927,-0.181871796,10.63396578
16.07021317,3.140319672,-10.16341507,0.774339752,10.66565589
16.08026317,2.446811829,-9.970166931,0.474812622,10.27699196
16.09031317,0.544268188,-9.926757202,-0.442928925,9.951528649
16.10036317,-1.501377869,-9.6812677,-1.271755371,9.879192351
16.11041417,-2.762804718,-9.186247101,-1.525328064,9.71323074
16.12046417,-3.725153503,-9.177265778,-2.278412018,10.16317554
16.13051417,-4.571343842,-9.671388245,-4.276756439,11.52057207
16.14056417,-4.894372101,-10.55305481,-6.097869415,13.13414845
16.15061417,-4.774770813,-11.45612686,-6.471941528,13.99740355
16.16066417,-5.116959229,-12.21923996,-5.65389267,14.40345789
16.17071417,-6.179000702,-12.5663681,-5.197192383,14.93668188
16.18076417,-7.766599274,-11.98961746,-5.030439148,15.14517445
16.19081417,-8.779991913,-10.60349991,-4.576283569,14.50740637
16.20086417,-8.599317627,-9.014254761,-3.360960846,12.90353093
16.21091517,-7.867339783,-7.919431458,-1.514849854,11.26530958
16.22096517,-6.584806824,-7.195536804,0.500110016,9.766552147
16.23101517,-5.073998566,-6.684798889,2.428998871,8.73682054
16.24106517,-3.484004974,-6.435866547,3.507356415,8.11543085
16.25111517,-2.093396759,-6.353687439,3.509751434,7.554469485
16.26116517,-0.987795868,-6.349645844,2.556234283,6.915784607
16.27121517,-0.102686462,-6.612050171,1.119372253,6.706917788
16.28126517,0.514330444,-7.176825714,-0.100141754,7.195928815
16.29131517,0.887055359,-7.816894684,-0.929716644,7.921810573
16.30136517,0.978964233,-8.457712097,-1.675316162,8.677439088
16.31141617,0.856069794,-9.047186279,-2.405348053,9.400539044
16.32146617,0.602197723,-9.586963806,-3.080444183,10.08769813
16.33151617,0.207917633,-10.09380981,-3.543730774,10.69982496
16.34156617,-0.296982422,-10.44587769,-3.752696228,11.1034809
16.35161617,-0.983604584,-10.49512527,-3.952830048,11.25788603
16.36166617,-2.041305084,-10.52655991,-4.01569931,11.44994458
16.37171617,-3.18612442,-10.55949142,-3.791465607,11.66316678
16.38176617,-4.04728363,-10.48135391,-3.419189758,11.74436645
16.39181617,-4.380041656,-10.18227585,-3.107088776,11.51162486
16.40186617,-4.286635895,-9.760003967,-2.689756622,10.99398542
16.41191617,-4.070934448,-9.383087769,-2.328408051,10.48982018
16.42196717,-3.903283081,-9.15825531,-2.223326569,10.20060979
16.43201717,-3.794160004,-9.14074173,-2.394720154,10.18250923
16.44206717,-3.718118134,-9.272467804,-2.674338684,10.34191225
16.45211717,-3.566782837,-9.417216797,-2.909799042,10.48202473
16.46216717,-3.395688629,-9.530980225,-2.936293945,10.53527918
16.47221717,-3.319197693,-9.548044739,-2.709814911,10.46543494
16.48226717,-3.235821075,-9.449399872,-2.439177704,10.28159928
16.49231717,-3.341501312,-9.327553253,-2.218087463,10.15326513
16.50236717,-3.47861618,-9.142987061,-2.092348938,10.00364469
16.51241717,-3.655099182,-8.984915771,-2.053130493,9.914827597
16.52246817,-4.038302307,-8.837921448,-2.13770462,9.949197057
16.53251817,-4.458927612,-8.663384399,-2.280058594,10.00674432
16.54256817,-4.663851471,-8.438551941,-2.498903503,9.960180125
16.55261817,-4.96352829,-8.317902832,-2.713257751,10.05911965
16.56266817,-5.237159271,-8.231083374,-2.971321106,10.19839791
16.57271817,-5.3694841,-8.247698822,-3.190315704,10.34572422
16.58276817,-5.04660553,-8.236172791,-3.448678436,10.25651757
16.59281817,-4.519102478,-8.286617889,-3.668720856,10.12668929
16.60286817,-4.067641296,-8.550818481,-3.618575134,10.13687765
16.61291817,-3.637735291,-9.001082153,-3.379372559,10.27972552
16.62296917,-3.137475586,-9.553283844,-3.387006683,10.61040996
16.63301917,-2.643652496,-10.16595978,-3.752546539,11.15424772
16.64306917,-2.308499451,-10.78552139,-4.321663055,11.84624046
16.65311917,-2.267784119,-11.26018433,-4.669240265,12.39904837
16.66316917,-2.640808411,-11.58860138,-4.366419983,12.66235264
16.67321917,-2.991379395,-11.6043187,-3.069067841,12.37043817
16.68326917,-2.867437134,-10.97038696,-1.614093475,11.45324773
16.69331917,-2.771486664,-9.832004242,-1.14781311,10.27944165
16.70336917,-2.810854797,-8.520281982,-1.034199371,9.031371883
16.71341917,-2.784210205,-7.408094788,-0.818797302,7.956263185
16.72347017,-2.686613159,-6.5758255,-1.21337677,7.206362083
16.73352017,-2.689008179,-6.217171326,-1.988315277,7.059559612
16.74357017,-2.649340668,-6.298152924,-3.161276093,7.528572425
16.75362017,-1.812131653,-6.645879822,-4.171225891,8.05299107
16.76367017,-1.186881866,-7.338489532,-3.495680695,8.214736801
16.77372017,-1.111738129,-8.379125519,-1.051413574,8.517697848
16.78377017,-1.281934204,-9.612710266,1.443448334,9.804646707
16.79382017,-2.190844116,-10.57760376,2.637215881,11.11937079
16.80387017,-3.077001343,-11.23967697,2.634820862,11.94740795
16.81392017,-3.265908508,-11.60192368,2.191742249,12.25049082
16.82397017,-3.090473328,-11.59997772,1.367556152,12.08224807
16.83402117,-3.309168549,-11.30673752,0.572858734,11.79495981
16.84407117,-4.055217133,-10.83102676,0.750539246,11.58961759
16.85412117,-4.441713409,-10.108629,1.543889465,11.14884716
16.86417117,-4.16194519,-9.216035156,1.932182007,10.29516484
16.87422117,-3.679648132,-8.359665985,1.496138763,9.255390697
16.88427117,-3.277584229,-7.954009552,0.449664917,8.614582106
16.89432117,-2.961291962,-8.148754578,-0.438138885,8.681210568
16.90437117,-2.885250092,-8.863518219,-0.866548004,9.361491802
16.91442117,-2.906056824,-9.696685638,-0.886755981,10.16155573
16.92447117,-2.76490036,-10.39513321,-0.696800995,10.77910015
16.93452217,-2.44666214,-10.76246933,-0.567919006,11.05167108
16.94457217,-2.067949677,-10.71471863,-0.494272156,10.92364024
16.95462217,-1.904040527,-10.2439476,-0.392483826,10.42678648
16.96467217,-2.14354248,-9.579030304,-0.403261414,9.82421578
16.97472217,-2.682571564,-9.075776825,-0.755478973,9.494033055
16.98477217,-3.021766205,-8.791368256,-1.021924896,9.35219532
16.99482217,-3.228636017,-8.657546539,-1.063388672,9.300967588
17.00487217,-3.44942688,-8.695866852,-1.093625793,9.418740016
17.01492217,-3.620072021,-8.853788452,-1.196461945,9.639813929
17.02497217,-3.675307159,-9.037905579,-1.353485413,9.85005293
17.03502317,-3.552113342,-9.187594299,-1.494791565,9.963122002
17.04507317,-3.324137421,-9.296567688,-1.518292694,9.989057667
17.05512317,-3.156635742,-9.325307922,-1.467398529,9.953842248
17.06517317,-3.049907684,-9.314680023,-1.422940979,9.904037654
17.07522317,-2.978356476,-9.326355743,-1.444945221,9.896432966
17.08527317,-2.855162659,-9.382638702,-1.616787872,9.939812164
17.09532317,-2.59754837,-9.444759521,-1.736239471,9.948128842
17.10537317,-2.241738281,-9.478289795,-1.751956787,9.896096227
17.11542317,-1.970502319,-9.506580963,-1.649420013,9.84776865
17.12547317,-1.796863403,-9.483828278,-1.434616699,9.758577866
17.13552417,-1.747316437,-9.475445709,-1.212478638,9.711194085
17.14557417,-1.889520721,-9.488768005,-0.95830719,9.722415311
17.15562417,-2.107617188,-9.472901001,-0.657732239,9.726793679
17.16567417,-2.283501434,-9.422904968,-0.352666626,9.702055998
17.17572417,-2.51102829,-9.350455627,-0.198636932,9.68378749
17.18577417,-2.740501099,-9.303752747,-0.142503662,9.700024162
17.19582417,-2.908751221,-9.333989868,-0.125289459,9.777520032
17.20587417,-3.024460602,-9.375154266,-0.105231171,9.851494965
17.21592392,-3.077899475,-9.431137848,-0.026195526,9.92071129
17.22597392,-3.042123871,-9.494605865,0.130229187,9.970908576
17.23602492,-2.967429199,-9.525591431,0.177530823,9.978679539
17.24607492,-2.915337524,-9.538764038,0.158969421,9.975594395
17.25612492,-2.961142273,-9.546547852,0.112565918,9.995879678
17.26617492,-3.003055115,-9.549391937,0.088316345,10.01084543
17.27622492,-2.928210754,-9.537566528,0.048648834,9.977071725
17.28627492,-2.750230865,-9.449549561,-0.046403503,9.84174324
17.29632492,-2.579735413,-9.367220764,-0.201031952,9.718038562
17.30637492,-2.485880585,-9.319919128,-0.420325928,9.654903869
17.31642492,-2.361638947,-9.292077026,-0.632734222,9.608349836
17.32647492,-2.28050766,-9.304650879,-0.787063293,9.612320833
17.33652592,-2.268233185,-9.350605316,-0.963246918,9.669878292
17.34657592,-2.327509918,-9.348060608,-1.187480621,9.706371607
17.35662592,-2.521356812,-9.369017029,-1.363664246,9.797719144
17.36667592,-2.834505615,-9.40868454,-1.41231308,9.927355896
17.37672592,-3.147804108,-9.446555786,-1.353635101,10.04880167
17.38677592,-3.332969055,-9.501491547,-1.178199921,10.1378094
17.39682592,-3.480711823,-9.581275635,-1.012195129,10.2440586
17.40687592,-3.51499054,-9.568701782,-0.906065826,10.23406896
17.41692592,-3.530707855,-9.517657928,-0.782273254,10.18153534
17.42697592,-3.506458282,-9.433083801,-0.669407959,10.08595195
17.43702692,-3.417094116,-9.323661346,-0.63063858,9.950120508
17.44707692,-3.360661469,-9.215137024,-0.63423111,9.829295243
17.45712692,-3.262465668,-9.117689667,-0.712218933,9.709953805
17.46717692,-3.218457184,-9.092841339,-0.651595001,9.667616372
17.47722692,-3.179687805,-9.122629395,-0.543968811,9.676191589
17.48727692,-3.152145081,-9.168583832,-0.445174255,9.705520502
17.49732692,-3.146756287,-9.237290955,-0.318088531,9.76374926
17.50737692,-3.171604614,-9.296268311,-0.251926117,9.825637236
17.51742692,-3.181035004,-9.301208038,-0.258662109,9.833532466
17.52747692,-3.1545401,-9.256451111,-0.272732849,9.783015569
17.53752792,-3.143463135,-9.20735321,-0.246237946,9.732283738
17.54757792,-3.16157547,-9.188043365,-0.263901215,9.720357205
17.55762792,-3.160677338,-9.197324066,-0.288599854,9.729539613
17.56767792,-3.164419556,-9.232351227,-0.243842926,9.762649214
17.57772792,-3.160527649,-9.248966675,-0.194745026,9.776003539
17.58777792,-3.097808075,-9.250014496,-0.113913116,9.75562193
17.59782792,-3.0457164,-9.242080994,-0.023052063,9.731031851
17.60787792,-2.967878265,-9.216035156,0.013172607,9.682137105
17.61792792,-2.981799316,-9.232650604,0.035925293,9.702280916
17.62797892,-3.053799591,-9.242380371,0.101488953,9.734350871
17.63802892,-3.129841461,-9.210047607,0.137114868,9.728293015
17.64807892,-3.258424072,-9.111851807,0.172740784,9.678481811
17.65812892,-3.479514313,-9.060658264,0.145647125,9.706892454
17.66817892,-3.704346771,-9.012458496,0.093854828,9.744506241
17.67822892,-3.992796936,-9.004375305,-0.001047821,9.849934168
17.68827892,-4.28603714,-9.170529785,-0.079784088,10.12299839
17.69832892,-4.618795166,-9.484576721,-0.143401794,10.55040418
17.70837892,-4.940476227,-9.873767395,-0.22812561,11.04317116
17.71842892,-5.073848877,-10.15188904,-0.277373199,11.35260892
17.72847992,-5.04660553,-10.21595581,-0.429157562,11.40255045
17.73852992,-4.802612915,-10.07509872,-0.740510101,11.18575256
17.74857992,-4.298161926,-9.792636108,-1.227297821,10.76457978
17.75862992,-3.654350739,-9.536369019,-1.991758118,10.40498504
17.76867992,-3.061134338,-9.337732086,-3.445534973,10.41323654
17.77872992,-2.602937164,-9.134005737,-9.279652863,13.27845247
17.78877992,-2.77073822,-9.453740845,-14.47145645,17.50637764
17.79882992,-3.106040955,-10.47327072,-10.08662476,14.86865458
17.80887992,-2.966082001,-11.72871002,-5.291496277,13.20455278
17.81892992,-2.095791779,-12.35575607,-1.867217102,12.67057816
17.82898092,-0.928668823,-12.52071304,-0.243244171,12.55746187
17.83903092,0.27258316,-12.64914597,-0.830622711,12.67931896
17.84908092,1.187031555,-12.74629395,-2.106868744,12.97366368
17.85913092,1.906585236,-12.83011963,-2.077080688,13.13625902
17.86918092,2.248324585,-12.71994873,-1.044378204,12.95927409
17.87923092,2.033072205,-12.4416774,0.905167694,12.63914743
17.88928092,1.628912659,-12.08886108,3.2633638,12.62709238
17.89933092,1.01803299,-11.37888748,4.804259491,12.39340069
17.90938092,0.20237915,-10.3421434,4.654271393,11.34297711
17.91943192,-0.993334351,-9.401050415,3.00709671,9.920135718
17.92948192,-2.490670624,-8.684789886,0.335153046,9.041091919
17.93953192,-4.307742004,-8.374485168,-2.179617462,9.666404466
17.94958192,-6.324947205,-8.263715515,-3.575614471,11.00358896
17.95963192,-7.6441539,-8.114924927,-3.734284515,11.75712449
17.96968192,-7.951764221,-7.842192078,-3.069217529,11.58234117
17.97973192,-7.29313385,-7.494914246,-2.018253021,10.65067539
17.98978192,-5.633684692,-7.048841858,-1.111289063,9.091729106
17.99983192,-3.443289642,-6.588249664,-0.454155579,7.447652952
18.00988192,-1.887425079,-6.342311096,0.162561951,6.619192538
18.01993292,-1.069974976,-6.319558411,0.573607178,6.435113841
18.02998292,-0.612825623,-6.351142731,0.627345428,6.41140636
18.04003292,-0.440384216,-6.481521606,0.550704803,6.519765055
18.05008292,-0.449814606,-6.816075897,0.590971069,6.856418206
18.06013292,-0.365839233,-7.231911163,0.434246979,7.25416762
18.07018292,-0.115410004,-7.70268219,0.15447876,7.705095462
18.08023292,0.297132111,-8.219108276,-0.289198608,8.229560388
18.09028292,0.727936249,-8.653205566,-0.714763641,8.713136337
18.10033292,0.86939209,-8.914262695,-0.897084503,9.001371152
18.11038292,0.762963409,-8.958271179,-1.109492798,9.058902249
18.12043392,0.449215851,-8.796906738,-1.776056671,8.985640786
18.13048392,-0.024249573,-8.487200775,-2.723286896,8.913442464
18.14053392,-0.359701996,-8.041577454,-3.446433105,8.75638365
18.15058392,-0.694855042,-7.690108337,-4.314328308,8.844999634
18.16063392,-1.954335938,-7.830366669,-6.627168732,10.44286534
18.17068392,-3.995042267,-8.236023102,-9.201365662,12.97912051
18.18073392,-5.498665466,-8.690627747,-9.219028931,13.81132966
18.19078392,-6.21432724,-9.182205505,-6.502328339,12.85344447
18.20083392,-6.902745667,-9.751771088,-2.384990387,12.18331302
18.21088492,-7.410489807,-10.46099625,0.796493683,12.84453985
18.22093492,-7.248526611,-11.78499298,1.284927979,13.89525953
18.23098492,-6.530619507,-13.62092514,-1.152154083,15.14945715
18.24103492,-5.738616486,-15.60774353,-5.491480408,17.51255933
18.25108492,-4.533622284,-17.28590378,-8.130193176,19.63303954
18.26113492,-2.603685608,-17.18276825,-6.986122284,18.7305261
18.27118492,-0.632734222,-15.11586639,-4.31058609,15.73120853
18.28123492,0.680634613,-12.37027588,-0.901425476,12.42173727
18.29128492,1.019380188,-9.820029144,1.728904724,10.02303447
18.30133492,0.87283493,-7.88290741,2.298769684,8.25750641
18.31138592,0.675545197,-6.676715698,1.669478302,6.915348988
18.32143592,0.393831024,-6.089486847,1.116079102,6.203433364
18.33148592,-0.144449615,-6.031707001,0.689915314,6.072753755
18.34153592,-0.74889267,-6.267466736,0.334703979,6.320918151
18.35158592,-1.350940704,-6.775659943,0.021255798,6.909056394
18.36163592,-2.314187622,-7.84069519,-0.010777588,8.175089087
18.37168592,-3.081342316,-8.946146393,0.179925842,9.463645125
18.38173592,-3.302133179,-9.493408356,0.161214752,10.05260543
18.39178592,-3.366050262,-9.729617157,-0.108224945,10.29599228
18.40183692,-3.46933548,-9.718091125,-0.636326752,10.33839908
18.41188692,-3.753444672,-9.612710266,-1.453178101,10.42133735
18.42193692,-4.278403015,-9.648934937,-2.386636963,10.82140073
18.43198692,-4.762496338,-9.846973114,-2.769091644,11.28326723
18.44203692,-4.815186768,-9.979297943,-2.256407776,11.30768708
18.45208692,-4.180955658,-9.961185608,-1.224453735,10.8722075
18.46213692,-3.305276642,-9.855954437,-0.437091064,10.40460187
18.47218692,-2.581531677,-9.773625641,-0.268691254,10.11238147
18.48223692,-2.144440613,-9.757608948,-0.242795105,9.993423206
18.49228792,-2.005379791,-9.677076416,-0.065713348,9.882898073
18.50233792,-2.17048645,-9.548942871,0.182320862,9.794210651
18.51238792,-2.407892761,-9.413773956,0.441731415,9.726881016
18.52243792,-2.575693817,-9.266929321,0.704584808,9.643993853
18.53248792,-2.731519775,-9.159752197,0.959055634,9.606354579
18.54253792,-2.908451843,-9.192384338,1.210382996,9.717203762
18.55258792,-3.010240173,-9.297615509,1.375639343,9.86912274
18.56263792,-3.033441925,-9.453441467,1.313368835,10.01470235
18.57268792,-2.962339783,-9.604327698,0.979263611,10.09839219
18.58273892,-2.81175293,-9.648934937,0.45161087,10.06041015
18.59278892,-2.670746155,-9.620943146,0.098944244,9.985250222
18.60283892,-2.577939148,-9.505533142,-0.11705658,9.849600642
18.61288892,-2.425256653,-9.448801117,-0.452209625,9.765562243
18.62293892,-2.228415985,-9.502988434,-0.90801178,9.802913463
18.63298892,-2.019151154,-9.641001434,-1.42279129,9.952397455
18.64303892,-1.798360291,-9.781259766,-1.850901031,10.11597632
18.65308892,-1.665287018,-9.897867279,-2.004781036,10.23523837
18.66313892,-1.610351257,-9.962832184,-1.865420837,10.2630917
18.67318892,-1.551224213,-9.952054596,-1.589245148,10.19683222
18.68323992,-1.53041748,-9.876761169,-1.343755646,10.08455592
18.69328992,-1.639989624,-9.816436615,-1.144519958,10.01807964
18.70333992,-1.805245972,-9.702224121,-1.06249054,9.925772114
18.71338992,-1.973795471,-9.592053223,-0.978066101,9.84174613
18.72343992,-2.109413452,-9.538464661,-0.859662323,9.806678974
18.73348992,-2.22661972,-9.532477112,-0.688568115,9.813260483
18.74353992,-2.331401825,-9.47649353,-0.565224609,9.775420347
18.75358992,-2.407593384,-9.435927887,-0.465531921,9.749356951
18.76363992,-2.517315216,-9.355545044,-0.45280838,9.698872841
18.77369092,-2.521207123,-9.29746582,-0.524509277,9.647510872
18.78374092,-2.520608368,-9.309590607,-0.595910797,9.663180299
18.79379092,-2.652933197,-9.391919403,-0.596659241,9.777638103
18.80384092,-2.824775848,-9.482181702,-0.577199707,9.910816713
18.81389092,-2.965782623,-9.462422791,-0.602197723,9.934583722
18.82394092,-3.086132355,-9.445957031,-0.530197449,9.951453486
18.83399092,-3.127895508,-9.455836487,-0.376018066,9.966843209
18.84404092,-3.117716675,-9.49520462,-0.207169189,9.996098595
18.85409092,-3.103496246,-9.550140381,-0.174537048,10.04327304
18.86414192,-2.962788849,-9.555379486,-0.258063354,10.00749677
18.87419192,-2.807561646,-9.558972015,-0.326920166,9.968110412
18.88424192,-2.763253784,-9.591005402,-0.299377441,9.985618806
18.89429192,-2.574047241,-9.631720734,-0.137563934,9.970691417
18.90434192,-2.371219025,-9.660760345,0.098046112,9.947993926
18.91439192,-2.214045868,-9.694440308,0.256117401,9.947349803
18.92444192,-2.101929016,-9.728419647,0.407303009,9.961232362
18.93449192,-2.051034851,-9.76434494,0.584833832,9.994558854
18.94454192,-2.064955902,-9.783355408,0.835712128,10.03376802
18.95459292,-1.991009674,-9.73979599,1.09991272,10.0018775
18.96464292,-1.842967529,-9.589209137,1.345102844,9.856914469
18.97469292,-1.741179199,-9.422605591,1.594035187,9.713812295
18.98474292,-1.76333313,-9.292675781,1.867217102,9.641040743
18.99479292,-1.920655975,-9.249715118,2.337988129,9.732026389
19.00484292,-1.924547882,-9.165889435,2.786904602,9.771604318
19.01489292,-1.447190552,-8.870254211,2.765499115,9.403390645
19.02494292,-0.074245605,-8.267757111,1.625769196,8.426413563
19.03499292,2.047442322,-7.60912674,-0.942140808,7.935896868
19.04504392,3.207080841,-7.329657898,-3.170407104,8.605854614
19.05509392,1.914818115,-7.555687866,-4.731211395,9.118075938
19.06514392,0.076790314,-8.056396637,-6.690786438,10.47272871
19.07519392,-2.26763443,-9.026978302,-9.167685699,13.06426287
19.08524392,-4.828509064,-10.66142944,-11.01858673,16.07450874
19.09529392,-6.639293518,-12.69929169,-10.83342178,17.9642772
19.10534392,-7.54820343,-14.78161148,-9.613159332,19.18030879
19.11539392,-7.428153076,-16.13464783,-9.074130249,19.94603114
19.12544392,-7.009773102,-16.20335495,-8.095465393,19.42220869
19.13549492,-6.059998169,-14.45993042,-6.809040527,17.09316233
19.14554492,-3.931723938,-11.78439423,-5.96629303,13.78140243
19.15559492,-2.3834935,-9.945019226,-5.151687012,11.45095314
19.16564492,-1.34330658,-8.715775452,-4.674928436,9.981190819
19.17569492,-0.613424377,-7.745792542,-4.534819794,8.996565018
19.18574492,-0.317190399,-7.052883453,-4.532574463,8.389756017
19.19579492,-0.492026825,-6.576124878,-4.487069092,7.976295998
19.20584492,-1.008003845,-6.209237823,-4.121978302,7.520732094
19.21589492,-1.726060638,-6.06568634,-3.210972748,7.076876578
19.22594608,-2.411934357,-6.187532959,-1.777703247,6.87482511
19.23599608,-2.841241608,-6.492598572,-0.257763977,7.091751008
19.24604608,-2.830613708,-6.729256439,0.988544312,7.366986226
19.25609608,-2.364033966,-6.776857452,1.945653992,7.436398522
19.26614608,-1.747316437,-6.790928192,2.894381104,7.585991195
19.27619608,-1.484013977,-6.983427887,3.405717773,7.910086984
19.28624608,-1.500779114,-7.205116882,3.497626648,8.148585117
19.29629608,-1.796564026,-7.511380005,3.07026535,8.311137178
19.30634608,-2.282303925,-7.905360718,2.7590625,8.678482884
19.31639608,-2.676883392,-8.26551178,2.37406311,9.006695583
19.32644708,-2.947969666,-8.561446381,1.784888306,9.229014874
19.33649708,-3.279679871,-8.836873627,1.091081085,9.488787777
19.34654708,-3.742517395,-9.072483673,0.495619354,9.826598343
19.35659708,-4.105961609,-9.317823486,-0.130977631,10.18321709
19.36664708,-4.505630493,-9.470805359,-1.345102844,10.57384329
19.37669708,-4.519850922,-9.563911743,-3.364852753,11.10043667
19.38674708,-3.649710388,-9.885143738,-5.268444214,11.78104227
19.39679708,-2.515219574,-10.14590149,-7.31064743,12.75583053
19.40684808,-2.226919098,-10.33675461,-7.342680817,12.87333003
19.41689808,-2.740950165,-10.36654266,-5.443879395,12.02554936
19.42694808,-2.621648254,-10.03123993,-3.169958038,10.84193009
19.43699808,-1.899250488,-9.727671204,-1.741478577,10.0631748
19.44704808,-1.22160965,-9.634415131,-1.03315155,9.766354856
