"Time (s)","Acceleration x (m/s^2)","Acceleration y (m/s^2)","Acceleration z (m/s^2)","Absolute acceleration (m/s^2)"
2.154916641E-3,-4.309089203E0,3.796854401E0,7.017856293E0,9.068332815E0
1.217591669E-2,-4.074227600E0,3.961811371E0,7.342830505E0,9.285065412E0
2.219591662E-2,-3.923491058E0,4.095483398E0,7.759713593E0,9.611447414E0
3.221691668E-2,-3.851341095E0,4.104464722E0,8.148155823E0,9.903125880E0
4.223791661E-2,-3.830684052E0,3.963308258E0,8.458909607E0,1.009629162E1
5.225791666E-2,-3.764371948E0,3.727249146E0,8.655450897E0,1.014789203E1
6.227891659E-2,-3.659140778E0,3.470383301E0,8.787476349E0,1.013176254E1
7.229991665E-2,-3.569776611E0,3.353326721E0,8.840316467E0,1.010639898E1
8.231991669E-2,-3.379073181E0,3.315305786E0,8.787775726E0,9.981702772E0
9.234091663E-2,-3.035836945E0,3.168910217E0,8.727002106E0,9.768257965E0
1.023619167E-1,-2.928210754E0,3.075953522E0,8.653055878E0,9.639049969E0
1.123819166E-1,-2.978506165E0,3.121159515E0,8.595874786E0,9.617806353E0
1.224029167E-1,-2.958747253E0,3.235821075E0,8.488098907E0,9.553666647E0
1.324239166E-1,-2.788700867E0,3.293750610E0,8.513695679E0,9.545085632E0
1.424439166E-1,-2.611170044E0,3.395089874E0,8.808881836E0,9.794960105E0
1.524649167E-1,-2.608625336E0,3.105741577E0,9.601184235E0,1.042272976E1
1.624859166E-1,-2.360291748E0,2.852318573E0,1.040186920E1,1.104108605E1
1.725059167E-1,-2.018702087E0,3.232078857E0,1.170925049E1,1.231373375E1
1.825269166E-1,-1.017733612E0,4.013304291E0,1.139685013E1,1.212561693E1
1.925479167E-1,-8.173004150E-1,4.345164185E0,1.012943573E1,1.105232555E1
2.025679166E-1,-9.325607300E-1,4.124223633E0,8.788374481E0,9.752662001E0
2.125889166E-1,-1.278641052E0,3.781436462E0,7.589218140E0,8.574987850E0
2.226089167E-1,-1.681004333E0,3.420237579E0,7.092101898E0,8.051193079E0
2.326299166E-1,-1.723815308E0,3.065625000E0,7.065157928E0,7.892151317E0
2.426509167E-1,-1.235830078E0,2.951562195E0,7.192543030E0,7.872208750E0
2.526709166E-1,-7.677534485E-1,2.972518616E0,7.507188721E0,8.110683989E0
2.626919167E-1,-5.050497437E-1,3.065325623E0,8.029602356E0,8.609634743E0
2.727129166E-1,-3.523672485E-1,2.998564453E0,8.359067230E0,8.887606900E0
2.827329166E-1,-1.546284485E-1,2.858755188E0,8.607251129E0,9.070896493E0
2.927539167E-1,2.257305908E-1,2.612217865E0,9.002129974E0,9.376192220E0
3.027749166E-1,5.999523926E-1,2.272274780E0,9.525741119E0,9.811366848E0
3.127949167E-1,3.823049927E-1,2.201172638E0,9.393865356E0,9.655880303E0
3.228159166E-1,2.948867798E-2,2.201921082E0,9.333241425E0,9.589511016E0
3.328369167E-1,-1.841171265E-1,2.037263489E0,9.506730652E0,9.724313309E0
3.428569166E-1,-3.492237854E-1,1.878743134E0,9.700876923E0,9.887297208E0
3.528779167E-1,-5.035528564E-1,1.680255890E0,9.741891632E0,9.898549283E0
3.628989167E-1,-9.139993286E-1,1.615290985E0,9.609566803E0,9.787151469E0
3.729189166E-1,-1.357826385E0,1.773511963E0,9.422605591E0,9.683725177E0
3.829399167E-1,-1.615290985E0,1.961820374E0,9.443262634E0,9.779218441E0
3.929609166E-1,-1.704206085E0,2.023941193E0,9.505383453E0,9.866760914E0
4.029809167E-1,-1.805545349E0,1.969304810E0,9.519454193E0,9.887272808E0
4.130019166E-1,-1.894610138E0,1.946103058E0,9.574240265E0,9.952032020E0
4.230229167E-1,-2.063309326E0,1.978585510E0,9.621691589E0,1.003737989E1
4.330429167E-1,-2.242037659E0,2.047741699E0,9.678124237E0,1.014327697E1
4.430639166E-1,-2.431393890E0,2.134261780E0,9.791288910E0,1.031193911E1
4.530849167E-1,-2.604284363E0,2.206411743E0,9.964179382E0,1.053258850E1
4.631049166E-1,-2.708617401E0,2.323917389E0,1.011701157E1,1.072805310E1
4.731259167E-1,-2.669249268E0,2.376757507E0,1.028032196E1,1.088388201E1
4.831469166E-1,-2.504292297E0,2.364033966E0,1.057820251E1,1.112467999E1
4.931669167E-1,-2.301763458E0,2.373015289E0,1.082369202E1,1.131731529E1
5.031879167E-1,-1.958976288E0,2.441123657E0,1.087114334E1,1.131275521E1
5.132089166E-1,-1.619033203E0,2.482587433E0,1.084928879E1,1.124684738E1
5.232289167E-1,-1.301992493E0,2.528092804E0,1.074001602E1,1.111010269E1
5.332499166E-1,-1.024170227E0,2.515069885E0,1.037642212E1,1.072588631E1
5.432709167E-1,-8.849597168E-1,2.473157043E0,1.000100281E1,1.034019906E1
5.532909166E-1,-7.420069885E-1,2.266736298E0,9.825118561E0,1.011047094E1
5.633119167E-1,-5.858816528E-1,2.062411194E0,9.846374359E0,1.007709707E1
5.733329166E-1,-4.366419983E-1,1.845512238E0,9.741442566E0,9.924327429E0
5.833529166E-1,-4.812492371E-1,1.601819000E0,9.751322021E0,9.893720539E0
5.933739167E-1,-4.984634399E-1,1.259331207E0,9.787397003E0,9.880663995E0
6.033949166E-1,-4.920268250E-1,8.593629456E-1,9.738897858E0,9.789112654E0
6.134149167E-1,-6.153703308E-1,6.093827820E-1,9.763446808E0,9.801781552E0
6.234359166E-1,-7.955955505E-1,7.192543030E-1,9.901459808E0,9.959377760E0
6.334569167E-1,-1.291963348E0,1.040186920E0,9.959389343E0,1.009656349E1
6.434769166E-1,-1.047821045E0,3.814068604E-1,9.781259766E0,9.844614911E0
6.534979166E-1,-8.857081604E-1,-2.275268555E-1,9.289532318E0,9.334434000E0
6.635189167E-1,-7.572752380E-1,-6.809339905E-1,9.090146942E0,9.147016361E0
6.735389166E-1,-6.685098267E-1,-8.824150085E-1,9.260792084E0,9.326726738E0
6.835599167E-1,-8.074209595E-1,-8.270301819E-1,9.075178070E0,9.148484275E0
6.935809166E-1,-9.059161377E-1,-7.689509583E-1,8.865464172E0,8.944742848E0
7.036009167E-1,-1.053209839E0,-6.048921204E-1,9.322763214E0,9.401545585E0
7.136219166E-1,-1.390009460E0,-4.809498596E-1,9.875713348E0,9.984645873E0
7.236429167E-1,-1.234482880E0,-6.502478027E-1,9.851164398E0,9.949482910E0
7.336629167E-1,-1.053808594E0,-8.849597168E-1,9.510173492E0,9.609217768E0
7.436839166E-1,-1.387764130E0,-8.086184692E-1,9.372759247E0,9.509383209E0
7.537049167E-1,-1.668280792E0,-6.396199036E-1,9.170080719E0,9.342518655E0
7.637249166E-1,-1.675765228E0,-6.486012268E-1,8.934320984E0,9.113230168E0
7.737459167E-1,-1.500928802E0,-9.380992126E-1,8.931327209E0,9.105021863E0
7.837669166E-1,-1.561103668E0,-1.431323547E0,9.178612976E0,9.419801905E0
7.937869166E-1,-1.467548218E0,-2.974913635E0,8.807983704E0,9.411927849E0
8.038079167E-1,-1.590292969E0,-2.384990387E0,9.243877258E0,9.678144328E0
8.138289166E-1,-1.769320679E0,-7.364685059E-1,1.028047165E1,1.045757997E1
8.238489167E-1,-2.035616913E0,4.873864746E-1,8.914113007E0,9.156565540E0
8.338697917E-1,-1.930685120E0,1.214723969E0,6.528074799E0,6.915118215E0
8.438907916E-1,-1.249751129E0,1.001866608E0,7.242688751E0,7.417692022E0
8.539107917E-1,-1.060095520E0,4.290078735E-1,8.340056763E0,8.418099374E0
8.639317916E-1,-9.683363342E-1,1.510359192E-1,8.962163086E0,9.015589514E0
8.739527917E-1,-1.104104004E0,4.165837097E-1,8.395441589E0,8.477973055E0
8.839727916E-1,-7.225474548E-1,3.236270142E-1,7.982600098E0,8.021764992E0
8.939937917E-1,1.264570312E0,1.319057007E0,6.944808197E0,7.181184467E0
9.040147916E-1,1.913171539E0,2.229164429E0,6.501130829E0,7.134010194E0
9.140347916E-1,1.377585297E0,2.238445129E0,7.061715088E0,7.534998197E0
9.240557917E-1,1.311273193E0,1.669777679E0,7.968379669E0,8.246373108E0
9.340767916E-1,1.466500397E0,1.293460236E0,9.020242310E0,9.229758075E0
9.440967917E-1,1.513502655E0,1.315464478E0,1.056038956E1,1.074909134E1
9.541177916E-1,1.165925446E0,1.636247406E0,1.353201004E1,1.368035027E1
9.641387917E-1,1.411265259E0,1.517843628E0,1.479388596E1,1.493835937E1
9.741587917E-1,2.157613220E0,7.496411133E-1,1.378124176E1,1.396924769E1
9.841797916E-1,2.165696411E0,5.942642212E-2,1.349698288E1,1.366975930E1
9.942007917E-1,1.559606781E0,-7.298822021E-1,1.379231873E1,1.389939413E1
1.004220792E0,1.104702759E0,-1.223256226E0,1.189905579E1,1.201267050E1
1.014241792E0,2.017803955E-1,-8.509803772E-1,1.115914444E1,1.119336355E1
1.024262792E0,-5.460644531E-1,-4.944218445E-1,1.122276215E1,1.124691200E1
1.034282792E0,-3.963757324E-1,-2.258802795E-1,1.052162018E1,1.053150639E1
1.044303792E0,-1.483415222E-1,2.092648315E-1,9.995464325E0,9.998755125E0
1.054324792E0,5.014572144E-2,4.475692749E-1,9.403744812E0,9.414523320E0
1.064344792E0,1.948947144E-1,6.846762085E-1,8.893306274E0,8.921752179E0
1.074365792E0,3.287164307E-1,1.039737854E0,8.418194275E0,8.488527796E0
1.084386792E0,3.730242920E-1,1.270857239E0,7.965236206E0,8.074602966E0
1.094406792E0,9.714797974E-2,1.239422607E0,7.750582581E0,7.849658366E0
1.104427792E0,-2.610571289E-1,1.097966766E0,7.849975891E0,7.930687444E0
1.114448792E0,-4.962181091E-1,9.425898743E-1,8.319250031E0,8.387170509E0
1.124468792E0,-5.298980713E-1,7.740403748E-1,8.894354095E0,8.943682980E0
1.134489792E0,-3.664379883E-1,6.873706055E-1,9.419611816E0,9.451763958E0
1.144510792E0,2.140548706E-2,6.953041077E-1,9.820927277E0,9.845532925E0
1.154530792E0,4.724176025E-1,7.912545776E-1,1.018931122E1,1.023090051E1
1.164551792E0,9.084608459E-1,8.388555908E-1,1.048045578E1,1.055314802E1
1.174571792E0,9.406439209E-1,5.764512634E-1,1.018377274E1,1.024335561E1
1.184592792E0,1.371148682E-1,3.534150696E-1,9.613309021E0,9.620780271E0
1.194613792E0,-6.361770630E-1,5.694158936E-1,9.425599365E0,9.464189300E0
1.204634792E0,-1.847158813E-1,3.767665100E-1,9.007818146E0,9.017586191E0
1.214654792E0,5.870791626E-1,-2.151026917E-1,8.945248260E0,8.967072965E0
1.224675792E0,4.866380310E-1,-4.596940613E-1,9.046288147E0,9.071023340E0
1.234696792E0,3.680845642E-1,-3.701802063E-1,9.198671265E0,9.213472346E0
1.244716792E0,9.053173828E-1,-1.763333130E-1,9.635762329E0,9.679804165E0
1.254737792E0,9.499246216E-1,-1.856140137E-1,1.000100281E1,1.004772942E1
1.264758792E0,7.388635254E-1,-2.570155334E-1,1.013227982E1,1.016243428E1
1.274778792E0,2.043251038E-1,-3.948788452E-1,9.835297394E0,9.845341684E0
1.284799792E0,-2.146536255E-1,-5.107379150E-1,9.197773132E0,9.214443010E0
1.294820792E0,-4.983137512E-1,-6.409671021E-1,8.233478394E0,8.273410535E0
1.304840792E0,-7.255412292E-1,-5.629792786E-1,7.235204315E0,7.293252856E0
1.314861792E0,-6.607260132E-1,-3.555107117E-1,6.202651520E0,6.247866244E0
1.324882792E0,-7.444020081E-1,-2.354603577E-1,5.261408844E0,5.319022368E0
1.334902792E0,-6.884184265E-1,-2.198927307E-1,4.418661346E0,4.477369857E0
1.344923792E0,-6.749464417E-1,-3.965254211E-1,3.814517670E0,3.894012091E0
1.354944792E0,-7.954458618E-1,-8.503816223E-1,3.513793030E0,3.701705618E0
1.364964792E0,-1.114881592E0,-1.188827820E0,3.273542633E0,3.656822927E0
1.374985792E0,-1.125808868E0,-1.403481445E0,2.980901184E0,3.481806664E0
1.385006792E0,-9.418414307E-1,-1.499731293E0,2.642754364E0,3.181259163E0
1.395026792E0,-1.115180969E0,-1.669927368E0,1.821412354E0,2.711056800E0
1.405047792E0,-1.002165985E0,-1.893861694E0,4.580474854E-1,2.191085639E0
1.415067792E0,-2.803669739E-1,-2.464624786E0,-6.768923950E-1,2.571218445E0
1.425088792E0,4.505630493E-2,-3.107837219E0,-1.350940704E0,3.389059315E0
1.435109792E0,1.613644409E-1,-3.815565491E0,-1.830243988E0,4.234899238E0
1.445130792E0,5.278024292E-1,-4.868176575E0,-1.802102509E0,5.217786122E0
1.455150792E0,1.037342834E0,-5.449118500E0,-1.031504974E0,5.642071879E0
1.465171792E0,2.360591125E0,-5.867648163E0,-9.758207703E-1,6.399524326E0
1.475192792E0,3.682791595E0,-6.948700104E0,-9.578581238E-1,7.922428873E0
1.485212792E0,4.713099060E0,-8.023614807E0,-1.802252197E-1,9.307211100E0
1.495233792E0,5.826334076E0,-8.474177856E0,7.303312683E-1,1.030976444E1
1.505254792E0,6.860683136E0,-8.893006897E0,1.546883240E0,1.133787425E1
1.515274792E0,7.883057098E0,-9.559121704E0,2.008523254E0,1.255203420E1
1.525295792E0,9.141490173E0,-1.045366150E1,2.384391632E0,1.409011018E1
1.535315792E0,1.063283890E1,-1.133353180E1,2.864293671E0,1.580222719E1
1.545336792E0,1.240365646E1,-1.199964661E1,3.759282532E0,1.766279756E1
1.555357792E0,1.455872498E1,-1.225411743E1,4.955445099E0,1.966408663E1
1.565378792E0,1.711211517E1,-1.214409622E1,6.242768097E0,2.189236653E1
1.575398792E0,1.959964233E1,-1.150073410E1,7.489824829E0,2.392718831E1
1.585419792E0,2.134950348E1,-1.088506439E1,8.435857544E0,2.540570050E1
1.595440792E0,2.225362335E1,-1.092084000E1,8.477620697E0,2.619844559E1
1.605460792E0,2.274729675E1,-1.081755478E1,7.533533936E0,2.629093255E1
1.615481792E0,2.411155975E1,-1.044542862E1,6.142027588E0,2.698515880E1
1.625502792E0,2.590243561E1,-9.675280151E0,4.878804474E0,2.807757022E1
1.635522792E0,2.705488907E1,-9.481433258E0,2.609972534E0,2.878674271E1
1.645543792E0,2.761652115E1,-8.698112183E0,1.553170166E0,2.899554679E1
1.655564792E0,2.758388901E1,-7.577692108E0,1.836680603E0,2.866471256E1
1.665584792E0,2.661076263E1,-7.799530792E0,1.257684631E0,2.775873086E1
1.675605792E0,2.484114258E1,-7.685318298E0,6.375242615E-1,2.601063089E1
1.685626792E0,2.334036346E1,-6.366710358E0,6.921606445E-1,2.420302985E1
1.695646792E0,2.185754700E1,-4.794679413E0,8.351133728E-1,2.239282755E1
1.705667792E0,2.041754150E1,-3.452570343E0,5.903723145E-1,2.071580997E1
1.715688792E0,1.892873749E1,-2.229314117E0,1.601669312E-1,1.906023604E1
1.725708792E0,1.767479507E1,-1.445394287E0,-7.270381165E-1,1.774869375E1
1.735729792E0,1.637564667E1,-1.391805725E0,-1.420096893E0,1.649592683E1
1.745750792E0,1.484028946E1,-1.246308289E0,-3.063229980E0,1.520430378E1
1.755770792E0,1.355131989E1,-1.237925720E0,-1.879042511E0,1.373686760E1
1.765791792E0,1.198946777E1,-1.129251709E0,-3.284020844E0,1.248228103E1
1.775812792E0,1.127200974E1,-1.160686340E0,-5.048102417E0,1.240518981E1
1.785832792E0,1.085737198E1,-8.207432556E-1,-6.176306305E0,1.251810311E1
1.795853792E0,1.089988358E1,-4.941224670E-1,-6.280190277E0,1.258937683E1
1.805874792E0,1.114881592E1,-3.673361206E-1,-5.534590759E0,1.245241852E1
1.815894792E0,1.129341522E1,-6.571334839E-1,-4.257147217E0,1.208703248E1
1.825915792E0,1.127679977E1,-1.296903076E0,-2.636018372E0,1.165318684E1
1.835937167E0,1.051862640E1,-2.005230103E0,-9.360035706E-1,1.074888608E1
1.845957167E0,9.383387146E0,-3.003504181E0,4.300556946E-1,9.861741205E0
1.855978167E0,8.309370575E0,-4.014950867E0,1.364562378E0,9.328853107E0
1.865999167E0,7.013215942E0,-4.735103302E0,2.199975128E0,8.743357004E0
1.876019167E0,6.356381836E0,-5.285059662E0,2.396965485E0,8.607025573E0
1.886040167E0,6.326294403E0,-5.581742706E0,2.287692719E0,8.741360906E0
1.896061167E0,5.935157776E0,-5.669909363E0,2.201172638E0,8.498183982E0
1.906081167E0,6.055357819E0,-5.653742981E0,1.985920258E0,8.519157662E0
1.916102167E0,6.207740936E0,-5.491779785E0,1.941911774E0,8.512738342E0
1.926123167E0,5.657934265E0,-5.154980164E0,2.292632446E0,7.990131674E0
1.936143167E0,5.496869202E0,-4.743934937E0,2.768642578E0,7.770834667E0
1.946164167E0,5.162165222E0,-4.339476013E0,3.465892639E0,7.582309255E0
1.956185167E0,4.416266327E0,-4.400998077E0,3.545676727E0,7.172448383E0
1.966205167E0,3.094514923E0,-4.886139221E0,3.554358673E0,6.788508281E0
1.976226167E0,2.354603577E0,-5.330265656E0,2.716850281E0,6.429398526E0
1.986247167E0,1.562450867E0,-5.083578644E0,2.644101562E0,5.939301105E0
1.996267167E0,-3.144960022E-1,-4.519401855E0,3.964206390E0,6.019869863E0
2.006288167E0,8.110134888E-1,-4.905598755E0,4.590653687E0,6.767329111E0
2.016309167E0,1.788031769E0,-4.676275635E0,5.387596436E0,7.354645251E0
2.026329167E0,1.785936127E0,-3.697610779E0,4.117637329E0,5.815224028E0
2.036350167E0,2.899470520E0,-4.971461792E0,8.343649292E-1,5.815369849E0
2.046371167E0,3.824846191E0,-6.681356049E0,1.249900818E-1,7.699713602E0
2.056391167E0,1.484313354E0,-5.661227417E0,1.817670135E0,6.128344534E0
2.066412167E0,2.021695862E0,-4.648433533E0,1.003513184E0,5.167419779E0
2.076433167E0,2.806214447E0,-3.785478058E0,8.021818542E-1,4.779976922E0
2.086453167E0,2.156864777E0,-2.819237366E0,2.669099579E0,4.441200012E0
2.096474167E0,3.150947571E0,-2.839595032E0,3.788621521E0,5.687303717E0
2.106495167E0,3.741170197E0,-2.917582855E0,4.884642334E0,6.809432788E0
2.116515167E0,3.395688629E0,-2.397115173E0,5.692662048E0,7.048635585E0
2.126536167E0,3.155138855E0,-2.013612671E0,5.762416992E0,6.871316233E0
2.136557167E0,3.318898315E0,-1.885628815E0,6.308481445E0,7.373440188E0
2.146577167E0,3.218457184E0,-1.136586456E0,7.598349152E0,8.329778223E0
2.156598167E0,2.794089661E0,-4.104464722E-1,8.492888947E0,8.950115418E0
2.166619167E0,2.646197205E0,-1.569785614E0,9.780062256E0,1.025261938E1
2.176639167E0,1.992955627E0,-3.407663727E0,1.144430145E1,1.210603486E1
2.186660167E0,1.220112762E0,-4.338877258E0,1.276545410E1,1.353777491E1
2.196681167E0,8.538244629E-1,-3.845203857E0,1.381162857E1,1.436230109E1
2.206701167E0,1.345102844E0,-2.848127289E0,1.423285263E1,1.457721595E1
2.216722167E0,2.248174896E0,-2.498155060E0,1.417537216E1,1.456833021E1
2.226743167E0,1.793570251E0,-3.349734192E0,1.376447662E1,1.427930076E1
2.236763167E0,3.610491943E-1,-4.634362793E0,1.288565414E1,1.369845823E1
2.246784167E0,-7.866142273E-1,-5.480104065E0,1.253089188E1,1.369939976E1
2.256805167E0,-1.580862579E0,-5.449567566E0,1.293565018E1,1.412543658E1
2.266825167E0,-1.502276001E0,-5.086273041E0,1.315045349E1,1.417961331E1
2.276846167E0,-1.101259918E0,-4.743635559E0,1.267339554E1,1.357681134E1
2.286867167E0,-2.013912048E0,-4.480333099E0,1.172257278E1,1.271015103E1
2.296887167E0,-3.074756012E0,-4.606820068E0,1.069436096E1,1.204351577E1
2.306908167E0,-3.066373444E0,-5.045707397E0,1.185100571E1,1.324039824E1
2.316929167E0,-3.310366058E0,-5.197042694E0,1.280362473E1,1.420917247E1
2.326949167E0,-2.670746155E0,-4.167932739E0,1.266785706E1,1.360070405E1
2.336970167E0,-8.376580811E-1,-2.762505341E0,1.284628601E1,1.316663097E1
2.346991167E0,-1.008901978E0,-1.934876404E0,1.143711639E1,1.164342137E1
2.357011167E0,-2.547851715E0,-2.594704285E0,9.230405273E0,9.920908235E0
2.367032167E0,-3.910617828E0,-4.508025513E0,7.758665771E0,9.788366584E0
2.377053167E0,-4.415218506E0,-6.237079926E0,7.488327942E0,1.069908294E1
2.387073167E0,-4.180207214E0,-6.559359741E0,8.158035278E0,1.127177325E1
2.397094167E0,-3.435655518E0,-5.287754059E0,7.945028229E0,1.014334981E1
2.407115167E0,-3.643573151E0,-4.002526703E0,7.368277588E0,9.142612314E0
2.417135167E0,-3.518283691E0,-3.608096924E0,6.273304596E0,8.046802725E0
2.427156167E0,-2.856958923E0,-3.148253174E0,5.161416779E0,6.686847949E0
2.437177167E0,-3.116519165E0,-2.375859375E0,4.107308807E0,5.676916867E0
2.447197167E0,-3.991150360E0,-1.947300568E0,3.758384399E0,5.817792880E0
2.457218167E0,-4.970863037E0,-2.117796021E0,4.561015320E0,7.070883966E0
2.467239167E0,-5.704487457E0,-2.715353394E0,5.986351318E0,8.703489146E0
2.477260167E0,-6.151308289E0,-3.232378235E0,6.741680603E0,9.681793226E0
2.487280167E0,-6.813531189E0,-3.258424072E0,6.791377258E0,1.015698478E1
2.497301167E0,-7.336244202E0,-3.462898865E0,6.129453735E0,1.016771118E1
2.507322167E0,-7.206164703E0,-4.480333099E0,6.075565796E0,1.043622030E1
2.517342167E0,-8.549171906E0,-4.329147491E0,6.155349884E0,1.138938938E1
2.527363167E0,-9.593400421E0,-4.667444000E0,3.736080780E0,1.130383407E1
2.537384167E0,-8.533903656E0,-5.871689758E0,1.692530365E0,1.049613792E1
2.547404167E0,-7.964787140E0,-5.701194305E0,5.960604858E-1,9.813090176E0
2.557425167E0,-7.389982452E0,-5.179379425E0,1.279838562E-1,9.025197601E0
2.567446167E0,-6.503376160E0,-4.914729767E0,-6.556365967E-2,8.151856767E0
2.577466167E0,-5.725294189E0,-5.027445374E0,4.053570557E-1,7.630105824E0
2.587487167E0,-4.988825684E0,-5.375771027E0,1.655856628E0,7.518587434E0
2.597508167E0,-3.194656677E0,-5.474565582E0,3.759432220E0,7.369533922E0
2.607528167E0,-3.293600922E0,-5.222789154E0,4.417314148E0,7.591969301E0
2.617549167E0,-4.331243134E0,-5.067112885E0,3.840264130E0,7.693044173E0
2.627570167E0,-4.251758423E0,-5.500611420E0,3.552113342E0,7.807156004E0
2.637590167E0,-4.033661957E0,-7.058721313E0,4.875062256E0,9.479567889E0
2.647611167E0,-4.328099670E0,-7.093000031E0,4.997208252E0,9.696142867E0
2.657632167E0,-4.753365326E0,-6.630162506E0,4.559817810E0,9.345880121E0
2.667652167E0,-4.888983307E0,-6.355034637E0,4.824467468E0,9.357569629E0
2.677673167E0,-5.265600128E0,-6.251300354E0,4.913681946E0,9.536748455E0
2.687694167E0,-5.777086487E0,-6.045927429E0,4.787793732E0,9.635919031E0
2.697714167E0,-6.033353577E0,-5.825735321E0,4.712949371E0,9.620417828E0
2.707735167E0,-5.917494507E0,-5.290598145E0,4.460424500E0,9.105084112E0
2.717756167E0,-6.573430481E0,-4.264032898E0,4.228856049E0,8.903661512E0
2.727776167E0,-7.881560211E0,-3.698059845E0,4.237687683E0,9.682594429E0
2.737797167E0,-9.282047882E0,-4.214485931E0,4.377197571E0,1.109405981E1
2.747818167E0,-1.044408142E1,-4.796325989E0,4.127965851E0,1.221162077E1
2.757838167E0,-1.097802109E1,-4.910688171E0,4.160448303E0,1.272560943E1
2.767859167E0,-1.088356750E1,-4.384232941E0,5.403014374E0,1.291766637E1
2.777880167E0,-1.101664078E1,-4.291126556E0,5.631589050E0,1.309560752E1
2.787900167E0,-1.044632675E1,-4.106859741E0,3.958667908E0,1.190223051E1
2.797921167E0,-9.900711365E0,-3.720213776E0,2.900967407E0,1.096720967E1
2.807942167E0,-9.602980499E0,-4.229754181E0,3.146756287E0,1.095491351E1
2.817962167E0,-9.904303894E0,-5.516179047E0,3.339705048E0,1.181850653E1
2.827983167E0,-1.082758392E1,-6.800508270E0,3.295097809E0,1.320383111E1
2.838004292E0,-1.167676804E1,-8.076454926E0,3.885320435E0,1.471977414E1
2.848024292E0,-1.160836029E1,-8.551866302E0,4.716242523E0,1.517008205E1
2.858045292E0,-1.150103348E1,-7.355703735E0,3.768413544E0,1.416266533E1
2.868066292E0,-1.188767944E1,-5.834866333E0,3.171155548E0,1.361685776E1
2.878086292E0,-1.210143494E1,-4.934937744E0,3.477418671E0,1.352371172E1
2.888107292E0,-1.239287888E1,-4.518054657E0,3.493135986E0,1.364544846E1
2.898128292E0,-1.252340744E1,-4.846920776E0,3.762725372E0,1.394584085E1
2.908148292E0,-1.273836044E1,-5.682333527E0,3.867956543E0,1.447466162E1
2.918169292E0,-1.269210663E1,-7.240892487E0,3.405867462E0,1.500400039E1
2.928190292E0,-1.256561966E1,-9.364376678E0,3.061583405E0,1.596745568E1
2.938210292E0,-1.200129318E1,-1.151450546E1,3.279979248E0,1.695208359E1
2.948231292E0,-1.073792038E1,-1.302351746E1,2.807561646E0,1.711132208E1
2.958252292E0,-8.703950043E0,-1.207389221E1,1.030606842E0,1.491977781E1
2.968273292E0,-7.688910828E0,-9.717941437E0,1.826801147E0,1.252577095E1
2.978293292E0,-5.169949036E0,-8.371042328E0,4.080364838E0,1.065138958E1
2.988314292E0,-3.392994232E0,-7.172185364E0,3.931274872E0,8.854805185E0
2.998335292E0,-4.161496124E0,-5.843697968E0,2.280807037E0,7.527877302E0
3.008355292E0,-5.078788605E0,-5.699847107E0,1.041234741E0,7.704967263E0
3.018376292E0,-4.141886902E0,-5.892945557E0,9.333091736E-1,7.263132964E0
3.028397292E0,-5.723797302E0,-5.954766998E0,1.251248016E0,8.353845052E0
3.038417292E0,-7.063062286E0,-6.162834320E0,1.746268616E0,9.535031714E0
3.048438292E0,-7.512278137E0,-5.977070618E0,2.701881409E0,9.972956388E0
3.058459292E0,-7.692054291E0,-5.480702820E0,3.260819092E0,9.991933935E0
3.068479292E0,-7.944429474E0,-5.079537048E0,3.219804382E0,9.964075298E0
3.078500292E0,-7.908803558E0,-4.798271942E0,2.649789734E0,9.622576214E0
3.088521292E0,-7.711663513E0,-4.555476837E0,1.987566833E0,9.174559677E0
3.098541292E0,-6.942712555E0,-4.166735229E0,1.323847046E0,8.204603043E0
3.108562292E0,-6.093229065E0,-3.430566101E0,4.191284180E-1,7.005133321E0
3.118583292E0,-4.975054321E0,-2.406246185E0,-7.866142273E-1,5.582109650E0
3.128603292E0,-4.315675507E0,-1.607956238E0,-1.564546509E0,4.863988499E0
3.138624292E0,-3.814966736E0,-1.302890625E0,-1.963916016E0,4.484245900E0
3.148645292E0,-3.483555908E0,-8.601113892E-1,-2.234702911E0,4.227156310E0
3.158665292E0,-3.528612213E0,-2.731819153E-1,-2.054178314E0,4.092112053E0
3.168686292E0,-3.700454865E0,7.035369873E-3,-1.019829254E0,3.838419910E0
3.178707292E0,-3.805386658E0,-1.136137390E-1,2.083666992E-1,3.812780138E0
3.188727292E0,-3.915108490E0,-4.578977966E-1,7.388635254E-1,4.010444388E0
3.198748292E0,-3.977378998E0,-7.717950439E-1,9.172924805E-1,4.154110829E0
3.208769292E0,-3.817511444E0,-1.047671356E0,9.066645813E-1,4.061163572E0
3.218789292E0,-2.973865814E0,-1.215771790E0,8.457412720E-1,3.322236780E0
3.228810292E0,-2.357148285E0,-1.099014587E0,1.509610748E0,3.007142450E0
3.238831292E0,-2.325863342E0,-1.058748322E0,3.306324463E0,4.178800037E0
3.248851292E0,-2.205962677E0,-2.123035126E0,5.160967712E0,6.000761386E0
3.258872292E0,-2.047292633E0,-3.605851593E0,5.947432251E0,7.250208495E0
3.268893292E0,-1.699865112E0,-4.406237183E0,5.913303223E0,7.567801696E0
3.278913292E0,-1.573378143E0,-5.348677368E0,5.584586792E0,7.891227915E0
3.288934292E0,-2.962788849E0,-6.660699005E0,6.478228455E0,9.752459839E0
3.298955292E0,-4.519401855E0,-6.925947418E0,6.386618958E0,1.044904984E1
3.308975292E0,-4.998555450E0,-6.284531250E0,4.230053558E0,9.076025712E0
3.318996292E0,-4.376748505E0,-5.904920654E0,3.210673370E0,8.020750520E0
3.329017292E0,-4.119882660E0,-6.339467010E0,3.631148987E0,8.387342730E0
3.339037292E0,-5.037175140E0,-6.858437805E0,4.278253326E0,9.524429329E0
3.349058292E0,-5.620961151E0,-7.220235443E0,4.344415741E0,1.012921281E1
3.359079292E0,-5.207371216E0,-7.579488373E0,4.372856598E0,1.018269286E1
3.369099292E0,-5.566624146E0,-8.411458282E0,5.467380524E0,1.147310702E1
3.379120292E0,-6.405779114E0,-9.727820892E0,6.610403595E0,1.339260770E1
3.389141292E0,-8.348888397E0,-1.363439713E1,1.042701691E1,1.908725763E1
3.399162292E0,-8.782835999E0,-1.692021423E1,1.764620453E1,2.597730533E1
3.409182292E0,-1.041773621E1,-1.735970032E1,2.780812271E1,3.439738524E1
3.419203292E0,-1.253238876E1,-1.311153442E1,1.338516541E1,2.254186674E1
3.429224292E0,-1.094808334E1,-9.425749054E0,5.823040924E0,1.557604185E1
3.439244292E0,-8.968000946E0,-8.099506989E0,3.269501038E0,1.251865374E1
3.449265292E0,-8.684191132E0,-1.028810577E1,3.216211853E0,1.384212103E1
3.459286292E0,-8.328231354E0,-1.186642365E1,3.304079132E0,1.486904121E1
3.469306292E0,-6.539002075E0,-1.044872177E1,2.457439728E0,1.256874476E1
3.479327292E0,-4.679269409E0,-8.098608856E0,1.893113251E0,9.542898165E0
3.489348292E0,-4.664749603E0,-6.498885498E0,1.528022461E0,8.144338783E0
3.499368292E0,-5.125042419E0,-6.141877899E0,8.864566040E-1,8.048262498E0
3.509389292E0,-5.694608002E0,-6.611301727E0,4.544549561E-1,8.737528262E0
3.519410292E0,-6.781198425E0,-7.378456421E0,6.418652344E-1,1.004182564E1
3.529430292E0,-8.044421539E0,-8.325237579E0,1.123563538E0,1.163119485E1
3.539451292E0,-8.524473267E0,-8.681197357E0,1.096918945E0,1.221609853E1
3.549472292E0,-8.687035217E0,-8.879983978E0,2.664608917E0,1.270507131E1
3.559492292E0,-8.145012360E0,-8.151149597E0,3.154989166E0,1.194723494E1
3.569513292E0,-7.214247894E0,-7.405400391E0,2.651885376E0,1.067322930E1
3.579534292E0,-5.718558197E0,-6.634653168E0,1.888772278E0,8.960356646E0
3.589554292E0,-3.528761902E0,-5.442083130E0,1.148112488E0,6.586849902E0
3.599575292E0,-9.154962158E-1,-3.961961060E0,1.227148132E0,4.247488823E0
3.609596292E0,9.728269958E-1,-2.891237640E0,2.034718781E0,3.666841689E0
3.619616292E0,4.222718811E-1,-2.822081451E0,2.356250153E0,3.700590769E0
3.629637292E0,-1.514550476E0,-3.260370026E0,2.213596802E0,4.221834512E0
3.639658292E0,-2.219734039E0,-5.704038391E0,2.107617188E0,6.473432118E0
3.649678292E0,-2.775528259E0,-7.277865601E0,1.713636475E0,7.975426934E0
3.659699292E0,-3.381019135E0,-7.190297699E0,1.697470093E0,8.124843143E0
3.669720292E0,-4.087400208E0,-7.156168671E0,4.534071350E-1,8.253676062E0
3.679741292E0,-4.555476837E0,-6.524931335E0,1.481918335E-2,7.957846301E0
3.689761292E0,-4.606221313E0,-5.945186920E0,1.362017670E0,7.643141660E0
3.699782292E0,-3.906576233E0,-5.362448730E0,3.902534637E0,7.697205392E0
3.709803292E0,-3.867357788E0,-5.799988861E0,5.190157013E0,8.691033130E0
3.719823292E0,-5.072651367E0,-6.874005432E0,3.467988281E0,9.220123930E0
3.729844292E0,-5.903124390E0,-7.154372406E0,1.441801758E0,9.386730762E0
3.739865292E0,-4.905149689E0,-6.484515381E0,1.664538574E-1,8.132474413E0
3.749885292E0,-4.570146332E0,-6.426735535E0,-3.269201660E-1,7.892784295E0
3.759906292E0,-5.259013824E0,-7.249574432E0,3.471281433E-1,8.962926632E0
3.769927292E0,-6.192921753E0,-8.115673370E0,1.383123779E0,1.030191562E1
3.779947292E0,-7.556286621E0,-8.897796936E0,2.064207458E0,1.185450169E1
3.789968292E0,-8.468639374E0,-8.984317017E0,1.990710297E0,1.250594789E1
3.799989292E0,-7.669002228E0,-8.365054779E0,1.774410095E0,1.148635137E1
3.810009292E0,-6.309978333E0,-7.683522034E0,1.962119751E0,1.013421192E1
3.820030292E0,-5.353916473E0,-7.437284088E0,2.287543030E0,9.445129397E0
3.830051292E0,-5.026397552E0,-7.678582306E0,2.368674316E0,9.478181081E0
3.840070542E0,-5.052742767E0,-7.774233398E0,2.102827148E0,9.507407450E0
3.850091542E0,-5.262306976E0,-7.702981567E0,1.813478851E0,9.503499634E0
3.860112542E0,-5.538033600E0,-7.776029663E0,1.792672119E0,9.713399343E0
3.870132542E0,-5.580096130E0,-8.039930878E0,2.010768585E0,9.991053580E0
3.880153542E0,-5.505102081E0,-8.753347321E0,2.008373566E0,1.053379336E1
3.890174542E0,-5.434748383E0,-9.592502289E0,2.013163605E0,1.120738229E1
3.900194542E0,-5.442382507E0,-1.022972717E1,2.256407776E0,1.180500832E1
3.910215542E0,-6.574478302E0,-1.023751099E1,2.158511353E0,1.235676201E1
3.920236542E0,-7.448510742E0,-1.060424835E1,2.170935516E0,1.313938189E1
3.930256542E0,-8.666976929E0,-1.119671631E1,2.134561157E0,1.431919329E1
3.940277542E0,-9.386979675E0,-1.127245880E1,2.049837341E0,1.481166932E1
3.950298542E0,-9.124275970E0,-1.029529083E1,2.176923065E0,1.392782895E1
3.960318542E0,-8.954229584E0,-9.159153442E0,2.423310699E0,1.303613263E1
3.970339542E0,-9.171427917E0,-9.136550446E0,2.434986420E0,1.317272952E1
3.980360542E0,-9.406289520E0,-9.458830261E0,2.167941742E0,1.351472248E1
3.990381542E0,-9.262887726E0,-9.274413757E0,1.734592896E0,1.322212737E1
4.000401542E0,-8.910221100E0,-8.537047119E0,1.082099762E0,1.238725771E1
4.010422542E0,-8.762478333E0,-7.358398132E0,9.639953613E-1,1.148287145E1
4.020443542E0,-7.828271027E0,-6.777905273E0,1.407373352E0,1.045000129E1
4.030463542E0,-6.286926270E0,-7.595954132E0,2.097288666E0,1.008080259E1
4.040484542E0,-4.489763489E0,-8.979676666E0,3.222199402E0,1.054396217E1
4.050505542E0,-3.554208984E0,-9.039252777E0,4.114643555E0,1.054849676E1
4.060525542E0,-3.666924591E0,-8.692274323E0,3.942651215E0,1.022479670E1
4.070546542E0,-4.306843872E0,-8.347391510E0,2.537223816E0,9.729612215E0
4.080567542E0,-5.029541016E0,-8.214467926E0,1.589544525E0,9.762193295E0
4.090587542E0,-5.367837524E0,-7.694149933E0,1.082548828E0,9.443809340E0
4.100608542E0,-6.544091492E0,-8.524473267E0,1.047521667E0,1.079764232E1
4.110629542E0,-7.516768799E0,-9.444609833E0,1.134640503E0,1.212393819E1
4.120649542E0,-8.164621582E0,-9.942324829E0,1.535207520E0,1.295637799E1
4.130670542E0,-7.822283478E0,-1.014066238E1,1.740131378E0,1.292475182E1
4.140691542E0,-6.792724457E0,-1.066681824E1,2.076781311E0,1.281542576E1
4.150711542E0,-5.730233917E0,-1.024798920E1,2.658621368E0,1.203848541E1
4.160732542E0,-4.742887115E0,-8.502618713E0,3.656745758E0,1.040006215E1
4.170753542E0,-3.727099457E0,-7.700736237E0,4.340673523E0,9.593438152E0
4.180773542E0,-2.906805267E0,-7.933502197E0,4.895270233E0,9.764919080E0
4.190794542E0,-2.262694702E0,-8.742719421E0,5.683680725E0,1.067048063E1
4.200815542E0,-2.487976227E0,-1.040755737E1,5.282964020E0,1.193385876E1
4.210835542E0,-2.854264526E0,-1.202733902E1,4.414320374E0,1.312592603E1
4.220856542E0,-3.310815125E0,-1.372855133E1,3.865561523E0,1.464162506E1
4.230877542E0,-3.163222046E0,-1.460737381E1,3.174897766E0,1.527944106E1
4.240898542E0,-3.343447266E0,-1.462039673E1,2.289189606E0,1.517152033E1
4.250918542E0,-4.231251068E0,-1.424961777E1,5.412744141E-1,1.487440991E1
4.260939542E0,-4.700974274E0,-1.289538391E1,-1.301693115E0,1.378711320E1
4.270960542E0,-4.413871307E0,-1.010937744E1,-2.027982788E0,1.121581412E1
4.280980542E0,-4.287234650E0,-7.922874298E0,-2.253713379E0,9.286094016E0
4.291001542E0,-3.329376526E0,-6.202950897E0,-1.768272858E0,7.258659434E0
4.301022542E0,-2.311642914E0,-5.041815491E0,-1.710792389E0,5.804343805E0
4.311042542E0,-1.777254181E0,-4.105213165E0,-2.098336487E0,4.941095381E0
4.321063542E0,-1.471140747E0,-3.072660370E0,-2.188898163E0,4.049292779E0
4.331084542E0,-1.185684357E0,-2.253713379E0,-2.324216766E0,3.447760862E0
4.341104542E0,-9.126521301E-1,-1.671274567E0,-2.476749573E0,3.124160853E0
4.351125542E0,-7.893086243E-1,-1.243763580E0,-2.309098206E0,2.738957917E0
4.361146542E0,-6.044430542E-1,-1.161734161E0,-2.030527496E0,2.416199408E0
4.371166542E0,-2.894979858E-1,-1.353036346E0,-1.857637024E0,2.316318577E0
4.381187542E0,1.628613281E-1,-1.926643524E0,-1.559756470E0,2.484214026E0
4.391208542E0,6.599775696E-1,-2.856060791E0,-1.139280853E0,3.144934737E0
4.401228542E0,1.005010071E0,-3.519181824E0,-8.897497559E-1,3.766475883E0
4.411249542E0,9.505233765E-1,-3.970942383E0,-9.575587463E-1,4.193899957E0
4.421270542E0,6.680607605E-1,-4.425547028E0,-1.337618408E0,4.671294754E0
4.431290542E0,7.394622803E-2,-5.352718964E0,-1.779798889E0,5.641343141E0
4.441311542E0,-7.997868347E-1,-6.721472626E0,3.469784546E-1,6.777775984E0
4.451332542E0,-2.195484467E0,-9.205107880E0,7.150031433E0,1.186073828E1
4.461352542E0,-3.987258453E0,-1.307336380E1,1.563618439E1,2.076779558E1
4.471373542E0,-5.978417816E0,-1.784708679E1,2.918181610E1,3.472518362E1
4.481394542E0,-7.746091919E0,-2.331731140E1,3.413247116E1,4.205620690E1
4.491414542E0,-5.413342896E0,-2.453772354E1,2.176039902E1,3.324032375E1
4.501435542E0,-4.248165894E-1,-2.295491501E1,1.486708374E1,2.735212553E1
4.511456542E0,3.991749115E0,-1.932601135E1,1.063283890E1,2.241620037E1
4.521477542E0,5.642516327E0,-1.537303162E1,7.152875519E0,1.786985506E1
4.531497542E0,5.137616272E0,-1.132709518E1,3.535348206E0,1.293046299E1
4.541518542E0,4.920417938E0,-8.976982269E0,1.721719666E0,1.038080160E1
4.551539542E0,4.023932190E0,-8.779542847E0,2.113155670E0,9.886244472E0
4.561559542E0,-5.273533630E-1,-1.150013535E1,2.738255768E0,1.183339593E1
4.571580542E0,-7.120243378E0,-1.493923370E1,2.742447052E0,1.677496901E1
4.581601542E0,-1.377091324E1,-1.704744965E1,3.765868835E0,2.223590248E1
4.591621542E0,-1.711181580E1,-1.592852646E1,4.608616333E0,2.382795710E1
4.601642542E0,-1.419528076E1,-1.115240845E1,-4.879852295E-1,1.805880228E1
4.611663542E0,-6.870412903E0,-6.744225311E0,-6.802304535E0,1.178806581E1
4.621683542E0,-2.350112915E0,-4.741689606E0,-7.724536743E0,9.363499289E0
4.631704542E0,-6.168672180E-1,-3.649261322E0,-5.587879944E0,6.702390292E0
4.641725542E0,-5.388793945E-2,-3.090623016E0,-4.597239990E0,5.539807764E0
4.651745542E0,2.520758057E-1,-3.056194611E0,-4.113296356E0,5.130601780E0
4.661766542E0,-1.119671631E-1,-4.371359711E0,-3.500770111E0,5.601492099E0
4.671787542E0,-6.987469482E-1,-6.165379028E0,-2.748434601E0,6.786312593E0
4.681807542E0,-1.452429657E0,-7.655081177E0,-2.929108887E0,8.324031391E0
4.691828542E0,-2.263892212E0,-8.957971802E0,-3.601959686E0,9.916883600E0
4.701849542E0,-2.841690674E0,-1.007554779E1,-4.522695007E0,1.140379934E1
4.711869542E0,-3.142265625E0,-1.070453979E1,-5.064717865E0,1.225203544E1
4.721890542E0,-3.553610229E0,-1.114507370E1,-4.929698639E0,1.269420112E1
4.731911542E0,-3.986659698E0,-1.110420868E1,-4.716392212E0,1.270595378E1
4.741931542E0,-4.183799744E0,-1.035381912E1,-4.341421967E0,1.198138954E1
4.751952542E0,-4.504432983E0,-9.831255798E0,-4.035308533E0,1.154240971E1
4.761973542E0,-4.959037628E0,-9.561666412E0,-3.340902557E0,1.127737331E1
4.771994542E0,-5.280269623E0,-8.581953735E0,2.847827911E0,1.047097422E1
4.782014542E0,-4.874313812E0,-7.684569855E0,9.952952728E0,1.348602302E1
4.792035542E0,-5.240452423E0,-7.858657837E0,8.613238678E0,1.278314222E1
4.802056542E0,-5.644162903E0,-7.991431732E0,5.821993103E0,1.138486538E1
4.812076542E0,-5.803581390E0,-8.601113892E0,2.501448212E0,1.067323570E1
4.822097542E0,-5.440137177E0,-9.247020721E0,-2.860551453E-1,1.073239546E1
4.832118542E0,-4.382436676E0,-9.049132233E0,-2.078427887E0,1.026705449E1
4.842138667E0,-3.474125519E0,-8.355325012E0,-2.990481262E0,9.530161717E0
4.852159667E0,-2.800226898E0,-7.520960083E0,-2.368225250E0,8.367472861E0
4.862180667E0,-2.471211090E0,-7.024592285E0,-1.051413574E0,7.520455540E0
4.872200667E0,-2.613265686E0,-6.969806213E0,-4.082011414E-1,7.454796065E0
4.882221667E0,-2.964585114E0,-7.184908905E0,-4.498146057E-1,7.785500244E0
4.892242667E0,-3.266507263E0,-7.226222992E0,-5.846841431E-1,7.951743455E0
4.902262667E0,-3.447480927E0,-7.081324310E0,-2.275268555E-2,7.875963205E0
4.912283667E0,-3.736829224E0,-7.237449646E0,8.198451233E-1,8.186373804E0
4.922304667E0,-3.977678375E0,-7.732470245E0,1.214125214E0,8.779927186E0
4.932324667E0,-4.234394531E0,-8.371341705E0,7.098239136E-1,9.408151199E0
4.942345667E0,-5.136568451E0,-9.303303680E0,-2.037263489E-1,1.062907801E1
4.952366667E0,-5.616021423E0,-9.858050079E0,-7.698490906E-1,1.137161007E1
4.962386667E0,-5.481600952E0,-1.010054581E1,-8.101153564E-1,1.152064501E1
4.972407667E0,-5.413492584E0,-1.047506699E1,-1.877096558E-1,1.179271662E1
4.982428667E0,-5.057083740E0,-1.060394897E1,1.082249451E0,1.179784276E1
4.992449667E0,-3.880081329E0,-9.970915375E0,2.915786591E0,1.108945427E1
5.002469667E0,-2.401905212E0,-9.307944031E0,5.121000824E0,1.089181437E1
5.012490667E0,-1.680555267E0,-9.426198120E0,6.014343109E0,1.130706859E1
5.022511667E0,-2.243684235E0,-1.004096970E1,4.360432434E0,1.117446027E1
5.032531667E0,-4.103865967E0,-1.045725403E1,1.572030945E0,1.134315472E1
5.042552667E0,-6.410718842E0,-1.014994308E1,-9.746232605E-1,1.204444068E1
5.052573667E0,-8.255931702E0,-9.519304504E0,-2.680326233E0,1.288261290E1
5.062593667E0,-9.262438660E0,-8.965605927E0,-3.664679260E0,1.340166906E1
5.072614667E0,-9.391769714E0,-7.997119904E0,-3.448528748E0,1.280826357E1
5.082635667E0,-1.060185333E1,-7.445666656E0,-2.144889679E0,1.313155732E1
5.092655667E0,-1.200922668E1,-7.673492889E0,-3.242257690E-1,1.425514437E1
5.102676667E0,-1.313323929E1,-9.180109863E0,1.425785065E0,1.608692806E1
5.112697667E0,-1.265199005E1,-1.085542603E1,3.569926300E0,1.704868031E1
5.122717667E0,-9.868228912E0,-1.140388550E1,5.661975861E0,1.610864727E1
5.132738667E0,-7.344327393E0,-1.186283112E1,5.189258881E0,1.488604429E1
5.142759667E0,-6.505172424E0,-1.237791000E1,2.727178802E0,1.424666377E1
5.152779667E0,-5.813909912E0,-1.209260330E1,1.784588928E0,1.353578076E1
5.162800667E0,-4.711751862E0,-1.174891800E1,2.240690460E0,1.285528582E1
5.172821667E0,-4.831802216E0,-1.182241516E1,5.541476440E-1,1.278369636E1
5.182842667E0,-5.339097290E0,-1.198557587E1,-1.835932159E0,1.324879752E1
5.192862667E0,-5.885311432E0,-1.252744904E1,-3.298091583E0,1.422853745E1
5.202883667E0,-6.337371368E0,-1.350192261E1,-3.779490509E0,1.538664156E1
5.212904667E0,-6.047124939E0,-1.464853821E1,-3.754043427E0,1.628619764E1
5.222924667E0,-5.422324219E0,-1.594843506E1,-3.590433655E0,1.722339672E1
5.232945667E0,-4.664599915E0,-1.721450226E1,-3.209026794E0,1.812168406E1
5.242966667E0,-4.094136200E0,-1.814900894E1,-2.648442535E0,1.879262421E1
5.252986667E0,-3.013683014E0,-1.887140671E1,-7.173083496E-1,1.912398514E1
5.263007667E0,-7.940986633E-1,-1.942630280E1,2.614313507E0,1.961750413E1
5.273028667E0,1.877246246E0,-1.838327179E1,4.674629059E0,1.906097825E1
5.283048667E0,3.062631226E0,-1.644944321E1,7.052135010E0,1.815754664E1
5.293069667E0,3.267106018E0,-1.433434158E1,6.567592621E0,1.610219250E1
5.303090667E0,2.303559723E0,-1.220112762E1,3.390599213E0,1.287128843E1
5.313110667E0,9.943821716E-1,-1.028421387E1,4.282594299E-1,1.034104719E1
5.323131667E0,4.144880676E-1,-9.352102203E0,-9.431886292E-1,9.408677950E0
5.333152667E0,-4.266128540E-2,-8.190667419E0,-3.592678986E0,8.944059205E0
5.343172667E0,-1.037193146E0,-6.837930450E0,-5.554050293E0,8.870205022E0
5.353193667E0,-2.919229431E0,-5.288352814E0,-4.984035645E0,7.831295376E0
5.363214667E0,-3.883374481E0,-4.422702942E0,-4.145479431E0,7.199020655E0
5.373234667E0,-4.007915497E0,-4.273313599E0,-3.990102539E0,7.088407015E0
5.383255667E0,-3.910168762E0,-4.247866516E0,-3.614832916E0,6.811813760E0
5.393276667E0,-4.150868225E0,-4.331392822E0,-2.793341217E0,6.617660157E0
5.403296667E0,-4.527185669E0,-4.167034607E0,-1.121767273E0,6.254434372E0
5.413317667E0,-4.993615723E0,-3.889661407E0,-1.222956848E-1,6.330925689E0
5.423338667E0,-5.217550049E0,-3.795058136E0,2.073188782E-1,6.455096892E0
5.433359667E0,-4.833448792E0,-3.865711212E0,-6.018983459E-1,6.218378568E0
5.443379667E0,-4.058360596E0,-3.861968994E0,-1.620979156E0,5.832038122E0
5.453400667E0,-3.234174500E0,-3.637435913E0,-2.327360229E0,5.395130244E0
5.463421667E0,-2.212998047E0,-3.288361816E0,-2.784359894E0,4.843897585E0
5.473441667E0,-1.212778015E0,-3.002905426E0,-3.183579712E0,4.541305021E0
5.483462667E0,-4.360432434E-1,-2.888243866E0,-3.343447266E0,4.439676335E0
5.493483667E0,2.097138977E-1,-2.797083435E0,-3.109783173E0,4.187888136E0
5.503503667E0,6.054908752E-1,-2.723436584E0,-2.685415649E0,3.872361455E0
5.513524667E0,8.000862122E-1,-2.672542419E0,-2.160307617E0,3.528391975E0
5.523545667E0,8.656498718E-1,-2.726130981E0,-1.590891724E0,3.272930843E0
5.533565667E0,6.231541443E-1,-3.081042938E0,-1.672172699E0,3.560520778E0
5.543586667E0,2.722837830E-1,-4.031266937E0,-1.781744843E0,4.415865290E0
5.553607667E0,-5.155279541E-1,-5.597010956E0,-3.586541748E-1,5.632134012E0
5.563627667E0,-2.171983337E0,-8.120313721E0,3.910617828E0,9.270918959E0
5.573648667E0,-4.093387756E0,-1.174682236E1,1.242311600E1,1.758059925E1
5.583669667E0,-8.931177521E0,-1.669074142E1,2.568703354E1,3.190878364E1
5.593689667E0,-1.400921768E1,-2.292063629E1,3.740990570E1,4.605556202E1
5.603710667E0,-1.322889038E1,-2.555291245E1,2.491568756E1,3.806240089E1
5.613731667E0,-7.926915894E0,-2.278217422E1,1.451471649E1,2.815209500E1
5.623752667E0,-1.251846771E0,-1.729263977E1,1.021670425E1,2.012420325E1
5.633772667E0,2.383942566E0,-1.311767166E1,7.331005096E0,1.521512825E1
5.643793667E0,3.828139343E0,-9.899813232E0,4.901706848E0,1.169135077E1
5.653814667E0,6.187682648E0,-8.409362640E0,5.288053436E0,1.170334592E1
5.663834667E0,8.394992523E0,-9.246421967E0,6.634503479E0,1.414174159E1
5.673855667E0,7.169341278E0,-1.232536926E1,4.619693298E0,1.498852054E1
5.683876667E0,3.150947571E0,-1.749621643E1,2.052681427E0,1.789579730E1
5.693896667E0,-2.966680756E0,-2.188284439E1,1.589993591E0,2.214019316E1
5.703917667E0,-9.873318329E0,-2.021755737E1,-5.878276062E-1,2.250727843E1
5.713938667E0,-1.127395569E1,-1.376806915E1,-2.219135284E0,1.793282929E1
5.723958667E0,-6.366710358E0,-8.029003601E0,-5.988596649E0,1.186857992E1
5.733979667E0,-3.148552551E0,-4.634811859E0,-7.399113464E0,9.281257684E0
5.744000667E0,-1.714983673E0,-2.818488922E0,-6.349496155E0,7.155497902E0
5.754020667E0,-7.204518127E-1,-2.262844391E0,-5.041216736E0,5.572556122E0
5.764041667E0,-3.546125793E-1,-2.513123932E0,-4.600982208E0,5.254576982E0
5.774062667E0,-9.265731812E-1,-3.705244904E0,-4.414769440E0,5.837599409E0
5.784083667E0,-1.984123993E0,-5.695655823E0,-4.826563110E0,7.724827165E0
5.794103667E0,-3.532204742E0,-7.944728851E0,-6.046975250E0,1.059061361E1
5.804124667E0,-5.464686127E0,-9.826316071E0,-7.843239899E0,1.370896400E1
5.814145667E0,-6.636748810E0,-1.137754028E1,-9.931098175E0,1.649610768E1
5.824165667E0,-7.615263977E0,-1.247939896E1,-9.880802765E0,1.764533669E1
5.834186667E0,-7.858807526E0,-1.241623032E1,-7.789052582E0,1.663108448E1
5.844208167E0,-7.235653381E0,-1.127515320E1,-5.915997620E0,1.464523087E1
5.854228167E0,-6.313570862E0,-9.717791748E0,-4.783602448E0,1.253712510E1
5.864249167E0,-5.567073212E0,-8.559949493E0,-3.846401367E0,1.091145467E1
5.874270167E0,-5.715414734E0,-7.697293396E0,-2.881358185E0,1.001081996E1
5.884290167E0,-5.610183563E0,-7.351662140E0,-1.609004059E0,9.386692170E0
5.894311167E0,-3.090772705E0,-7.542515259E0,7.151827698E0,1.084394079E1
5.904332167E0,-9.204359436E-1,-7.707921295E0,1.233988907E1,1.457848124E1
5.914352167E0,-3.291654968E-1,-9.029523010E0,1.113085327E1,1.433654527E1
5.924373167E0,-9.101074219E-1,-9.892029419E0,7.472460938E0,1.243053555E1
5.934394167E0,-2.143542480E0,-9.945917358E0,2.651585999E0,1.051413119E1
5.944414167E0,-3.225492554E0,-9.563911743E0,-9.078620911E-1,1.013392439E1
5.954435167E0,-3.305426331E0,-8.822353821E0,-2.408491516E0,9.724227555E0
5.964456167E0,-3.073109436E0,-8.233927460E0,-2.335144043E0,9.093649472E0
5.974476167E0,-2.976560211E0,-7.492369537E0,-2.120939484E0,8.336299915E0
5.984497167E0,-3.217559052E0,-7.160659332E0,-1.880389709E0,8.072397028E0
5.994518167E0,-3.419040070E0,-7.110962677E0,-1.456920319E0,8.023605300E0
6.004539167E0,-3.715124359E0,-7.228318634E0,-6.968009949E-1,8.156976824E0
6.014559167E0,-4.375401306E0,-7.349566498E0,4.761598206E-1,8.566620831E0
6.024580167E0,-5.277724915E0,-7.399562531E0,1.000968475E0,9.143841852E0
6.034601167E0,-5.997428284E0,-7.725883942E0,8.152047729E-1,9.814427519E0
6.044621167E0,-6.244115295E0,-8.065228271E0,1.833686829E-1,1.020149533E1
6.054642167E0,-6.286028137E0,-8.537645874E0,-3.772155762E-1,1.060885660E1
6.064663167E0,-6.242468719E0,-9.177714844E0,-4.827461243E-1,1.110999142E1
6.074683167E0,-5.972729645E0,-9.880503387E0,-1.657054138E-1,1.154665774E1
6.084704167E0,-5.246140594E0,-1.021550674E1,6.559359741E-1,1.150255716E1
6.094725167E0,-3.976031799E0,-9.971214752E0,2.120789795E0,1.094219822E1
6.104745167E0,-2.750979309E0,-9.618847504E0,3.870650940E0,1.072716426E1
6.114766167E0,-2.182012482E0,-9.756411438E0,4.792883148E0,1.108695050E1
6.124787167E0,-2.864742737E0,-1.043510010E1,3.753294983E0,1.145361464E1
6.134807167E0,-4.691543884E0,-1.112321915E1,1.138083344E0,1.212566790E1
6.144828167E0,-6.763235779E0,-1.088716003E1,-1.454974365E0,1.289916905E1
6.154849167E0,-8.406668243E0,-1.011865814E1,-2.605781250E0,1.341079451E1
6.164870167E0,-9.171577606E0,-9.347461853E0,-2.706372070E0,1.337225967E1
6.174890167E0,-9.245374146E0,-8.393196259E0,-2.444267120E0,1.272388024E1
6.184911167E0,-9.084608459E0,-7.423662415E0,-1.334624634E0,1.180771347E1
6.194932167E0,-8.825946350E0,-7.170987854E0,7.159611511E-1,1.139442829E1
6.204952167E0,-8.447832642E0,-8.458460541E0,2.547851715E0,1.222305115E1
6.214973167E0,-8.101153564E0,-1.057371185E1,2.993624725E0,1.365261368E1
6.224994167E0,-8.189320221E0,-1.269375320E1,3.120860138E0,1.542517760E1
6.235014167E0,-7.718848572E0,-1.306228683E1,4.465813293E0,1.581605036E1
6.245035167E0,-7.217241669E0,-1.181433197E1,4.414470062E0,1.453115835E1
6.255056167E0,-7.595205688E0,-1.082578766E1,2.384092255E0,1.343758623E1
6.265076167E0,-8.152347107E0,-1.051668045E1,1.596729584E0,1.340189824E1
6.275097167E0,-8.362809448E0,-1.043135788E1,1.836979980E0,1.349534381E1
6.285118167E0,-8.413703613E0,-1.074166260E1,4.463717651E-1,1.365184865E1
6.295138167E0,-8.513545990E0,-1.132215546E1,-2.843337250E0,1.444839909E1
6.305159167E0,-8.100554810E0,-1.157887161E1,-5.025499420E0,1.499816324E1
6.315180167E0,-7.626939697E0,-1.204619980E1,-5.195246429E0,1.517470673E1
6.325200167E0,-7.112908630E0,-1.332049988E1,-4.776118011E0,1.583794461E1
6.335221167E0,-6.446644135E0,-1.466874619E1,-4.333787842E0,1.659858585E1
6.345242167E0,-5.799988861E0,-1.600531677E1,-3.727698212E0,1.742715610E1
6.355263167E0,-5.155578918E0,-1.701092560E1,-2.993774414E0,1.802537847E1
6.365283167E0,-4.279151459E0,-1.770652908E1,-1.735940094E0,1.829879224E1
6.375304167E0,-3.046015778E0,-1.847009125E1,6.909631348E-1,1.873232268E1
6.385325167E0,-1.124611359E0,-1.878219223E1,3.284469910E0,1.910034655E1
6.395345167E0,5.081932068E-1,-1.766446655E1,4.445455627E0,1.822234109E1
6.405366167E0,1.038540344E0,-1.586565720E1,6.361920319E0,1.712517663E1
6.415387167E0,1.491648102E0,-1.376881760E1,3.862867126E0,1.437800732E1
6.425407167E0,1.646276550E0,-1.316392548E1,4.231251068E0,1.392489303E1
6.435428167E0,1.332229614E0,-9.999954987E0,-1.794767761E-1,1.008990324E1
6.445449167E0,6.318360901E-1,-7.229815521E0,-6.617139587E0,9.821200824E0
6.455469167E0,-1.121168518E0,-5.253924408E0,-8.926237793E0,1.041817938E1
6.465490167E0,-3.079096985E0,-4.161496124E0,-6.152056732E0,8.040316553E0
6.475511167E0,-3.243155823E0,-3.882176971E0,-3.418291626E0,6.105249820E0
6.485531167E0,-3.293151855E0,-4.019591217E0,-2.149530029E0,5.623383505E0
6.495552167E0,-3.959715729E0,-3.949686584E0,-1.270557861E0,5.735302089E0
6.505573167E0,-4.627028046E0,-3.833528137E0,-8.373587036E-1,6.066835758E0
6.515594167E0,-5.079686737E0,-3.623365173E0,-1.137334900E0,6.342359435E0
6.525614167E0,-5.185067596E0,-3.375630341E0,-2.209854584E0,6.569875452E0
6.535635167E0,-4.667743378E0,-3.322341156E0,-3.745511169E0,6.845044406E0
6.545656167E0,-3.283871155E0,-2.996169434E0,-4.535867615E0,6.350979141E0
6.555676167E0,-1.732048187E0,-2.749781799E0,-4.806804199E0,5.802297603E0
6.565697167E0,-7.077282715E-1,-2.731370087E0,-4.850812683E0,5.611741757E0
6.575718167E0,9.879455566E-2,-2.738555145E0,-4.446353760E0,5.222978691E0
6.585738167E0,7.176077271E-1,-2.815345459E0,-3.698658600E0,4.703318652E0
6.595759167E0,1.195713501E0,-2.911744995E0,-3.116968231E0,4.429839799E0
6.605780167E0,1.522184601E0,-3.010689240E0,-2.726430359E0,4.337593591E0
6.615800167E0,1.631457367E0,-3.142565002E0,-2.455194397E0,4.308752425E0
6.625821167E0,1.691033478E0,-3.227588196E0,-2.071542206E0,4.191444488E0
6.635842167E0,1.741328888E0,-3.377576294E0,-1.816622314E0,4.211931214E0
6.645862167E0,1.584305420E0,-3.831432495E0,-1.898052979E0,4.559879794E0
6.655883167E0,1.671124878E0,-5.246589661E0,-1.050515442E0,5.605617193E0
6.665904167E0,1.220262451E0,-7.639513550E0,1.368603973E0,7.856480418E0
6.675925167E0,-1.391805725E0,-1.119641693E1,6.693031769E0,1.311844311E1
6.685945167E0,-4.561763763E0,-1.623419083E1,1.742256958E1,2.424674352E1
6.695966167E0,-8.798852692E0,-2.249058060E1,3.141562088E1,3.962558844E1
6.705987167E0,-1.032343231E1,-2.565784424E1,2.653831329E1,3.832988779E1
6.716007167E0,-8.780740356E0,-2.472064316E1,2.156969559E1,3.396267609E1
6.726028167E0,-5.295088806E0,-2.005110352E1,1.619856491E1,2.631498096E1
6.736049167E0,-1.642085266E0,-1.445858322E1,1.056428146E1,1.798196640E1
6.746069167E0,1.817221069E-1,-1.012494507E1,7.006030884E0,1.231389477E1
6.756090167E0,1.107846222E0,-6.404431915E0,4.218078461E0,7.748306738E0
6.766111167E0,2.055525513E0,-4.210743713E0,3.177891541E0,5.661673109E0
6.776131167E0,1.722767487E0,-4.506828003E0,5.419031067E0,7.255709763E0
6.786152167E0,-2.429897003E0,-9.277108154E0,5.799240417E0,1.120715506E1
6.796173167E0,-7.507488098E0,-1.646126862E1,3.125799866E0,1.836045661E1
6.806193167E0,-1.241847565E1,-2.093022537E1,6.908134460E-1,2.434687033E1
6.816214167E0,-1.396670609E1,-1.905118286E1,-3.858975220E-1,2.362552357E1
6.826235167E0,-9.473499756E0,-1.467757782E1,-3.322191467E0,1.778244765E1
6.836256167E0,-4.700674896E0,-1.064526306E1,-6.572083282E0,1.336451454E1
6.846276292E0,-2.097887421E0,-7.583080902E0,-5.521268463E0,9.611901635E0
6.856297292E0,-3.460803223E-1,-5.433850250E0,-4.463118896E0,7.040307551E0
6.866318292E0,7.261399841E-1,-4.332590332E0,-4.019591217E0,5.954471581E0
6.876338292E0,1.272653503E0,-3.894750824E0,-3.826193390E0,5.606111556E0
6.886359292E0,1.145717468E0,-3.899391174E0,-3.758234711E0,5.535544073E0
6.896380292E0,4.001179504E-1,-4.924010468E0,-3.719764709E0,6.184062011E0
6.906400292E0,-5.966592407E-1,-6.954687653E0,-4.260590057E0,8.177793726E0
6.916421292E0,-1.378633118E0,-8.915909271E0,-6.095923462E0,1.088826663E1
6.926442292E0,-1.657503204E0,-1.028481262E1,-8.016729126E0,1.314506118E1
6.936462292E0,-2.499801636E0,-1.115570160E1,-8.598419495E0,1.430494684E1
6.946483292E0,-3.692820740E0,-1.157063873E1,-7.359895020E0,1.420157246E1
6.956504292E0,-3.851790161E0,-1.121243362E1,-5.724246368E0,1.316517952E1
6.966525292E0,-3.251987457E0,-1.034558624E1,-4.724176025E0,1.182896514E1
6.976545292E0,-2.968477020E0,-9.484726410E0,-4.092938690E0,1.074821092E1
6.986566292E0,-2.836451569E0,-8.838370514E0,-3.487747192E0,9.915978586E0
6.996587292E0,-2.615361328E0,-8.540789337E0,-2.878514099E0,9.384617243E0
7.006607292E0,-2.468816071E0,-8.628057861E0,-2.276016998E0,9.258438779E0
7.016628292E0,-2.721939697E0,-8.937763824E0,3.360511780E-1,9.349091308E0
7.026649292E0,-3.355871429E0,-9.164841614E0,5.020709381E0,1.097559646E1
7.036669292E0,-3.781137085E0,-9.376202087E0,7.368427277E0,1.251015123E1
7.046690292E0,-4.218078461E0,-9.542057190E0,8.401279449E0,1.339494448E1
7.056711292E0,-4.743934937E0,-9.095984802E0,5.824986877E0,1.179713229E1
7.066731292E0,-3.860472107E0,-8.682843933E0,1.857786713E0,9.682272209E0
7.076752292E0,-3.186124420E0,-8.704099731E0,-2.489323425E-1,9.272254756E0
7.086773292E0,-3.267854462E0,-8.334518280E0,-1.512155457E0,9.079079351E0
7.096793292E0,-3.382965088E0,-7.929759979E0,-2.222877502E0,8.903186537E0
7.106814292E0,-3.648961945E0,-7.635771332E0,-1.857936401E0,8.664401582E0
7.116835292E0,-4.356690216E0,-7.727530518E0,-1.303639069E0,8.966323235E0
7.126855292E0,-4.996459808E0,-7.734715576E0,-1.268312531E0,9.295109055E0
7.136876292E0,-5.448370056E0,-7.724686432E0,-1.387464752E0,9.554086831E0
7.146897292E0,-5.827232208E0,-7.916737061E0,-1.448687439E0,9.936299925E0
7.156918292E0,-6.212530975E0,-8.230484619E0,-1.553170166E0,1.042826715E1
7.166938292E0,-6.476432190E0,-8.515791321E0,-1.433269501E0,1.079431041E1
7.176959292E0,-6.879094849E0,-8.767268372E0,-8.731343079E-1,1.117807247E1
7.186980292E0,-7.301815796E0,-9.101223907E0,1.655557251E-1,1.166945582E1
7.197000292E0,-6.777905273E0,-9.249415741E0,1.497186584E0,1.156430971E1
7.207021292E0,-5.327870636E0,-9.060807953E0,3.687431946E0,1.113919210E1
7.217042292E0,-3.627406769E0,-8.902287598E0,6.330036621E0,1.150991607E1
7.227062292E0,-2.755320282E0,-9.124725037E0,6.954687653E0,1.179915578E1
7.237083292E0,-3.685485992E0,-1.002585114E1,4.553081818E0,1.161167740E1
7.247104292E0,-6.030359802E0,-1.071441925E1,1.025218048E0,1.233754802E1
7.257124292E0,-8.310867462E0,-1.060005707E1,-1.927092590E0,1.360681497E1
7.267145292E0,-9.500144348E0,-9.981543274E0,-3.078947296E0,1.411962695E1
7.277166292E0,-9.402996368E0,-8.778195648E0,-2.341131592E0,1.307493620E1
7.287186292E0,-8.728349304E0,-7.315138092E0,-2.844085693E-1,1.139193641E1
7.297207292E0,-8.351283417E0,-6.685098267E0,1.808838501E0,1.084925667E1
7.307228292E0,-8.481662292E0,-7.546556854E0,2.840942230E0,1.170299399E1
7.317249292E0,-8.796008606E0,-9.540859680E0,2.391576691E0,1.319535562E1
7.327269292E0,-8.816965027E0,-1.134535721E1,1.685045929E0,1.446704470E1
7.337290292E0,-8.242908783E0,-1.258433075E1,2.221081238E0,1.520671324E1
7.347311292E0,-7.388186188E0,-1.287876846E1,2.976709900E0,1.514294470E1
7.357331292E0,-6.815327454E0,-1.226369751E1,2.625390472E0,1.427373953E1
7.367352292E0,-6.336922302E0,-1.145118713E1,2.008223877E0,1.324081698E1
7.377373292E0,-5.643713837E0,-1.103939346E1,1.832938385E0,1.253313117E1
7.387393292E0,-5.673950958E0,-1.119566849E1,5.049000549E-1,1.256151410E1
7.397414292E0,-6.291416931E0,-1.132350266E1,-2.608475647E0,1.321392389E1
7.407435292E0,-6.349645844E0,-1.167811523E1,-4.922363892E0,1.417483841E1
7.417455292E0,-6.023773499E0,-1.271006927E1,-5.087620239E0,1.495712499E1
7.427476292E0,-5.623056793E0,-1.440993439E1,-4.236789551E0,1.603793511E1
7.437497292E0,-5.257516937E0,-1.599888016E1,-3.599864044E0,1.722105316E1
7.447518292E0,-4.512366486E0,-1.730192047E1,-2.794987793E0,1.809778605E1
7.457538292E0,-3.461701355E0,-1.841470642E1,-1.297651520E0,1.878213748E1
7.467559292E0,-2.296374664E0,-1.937810303E1,1.309327240E0,1.955757018E1
7.477580292E0,-7.171586609E-1,-1.939681412E1,3.679498444E0,1.975574406E1
7.487600292E0,5.533992004E-1,-1.803973618E1,4.951852570E0,1.871521242E1
7.497621292E0,7.717950439E-1,-1.574231369E1,5.197641449E0,1.659613161E1
7.507642292E0,2.863545227E-1,-1.327409637E1,3.976181488E0,1.385978545E1
7.517662292E0,-6.307882690E-1,-1.107681564E1,2.300116882E0,1.133067855E1
7.527683292E0,-1.626218262E0,-1.009740234E1,2.556383972E0,1.054216386E1
7.537704292E0,-1.626218262E0,-8.480015717E0,-8.773255920E-1,8.678994906E0
7.547724292E0,-1.195114746E0,-6.751709747E0,-5.852978668E0,9.015056465E0
7.557745292E0,-2.343825989E0,-5.917195129E0,-8.171806641E0,1.035785413E1
7.567766292E0,-3.479813690E0,-4.832400970E0,-5.222938843E0,7.920877010E0
7.577786292E0,-4.005520477E0,-4.256847839E0,-2.102677460E0,6.211779159E0
7.587807292E0,-4.486170959E0,-4.038601685E0,-1.384021912E0,6.192862835E0
7.597828292E0,-4.615202637E0,-3.848197632E0,-7.861651611E-1,6.060262045E0
7.607848292E0,-4.422553253E0,-3.813170471E0,-4.294569397E-1,5.855226689E0
7.617869292E0,-4.312382355E0,-3.828887787E0,-6.316864014E-1,5.801383539E0
7.627890292E0,-3.947141876E0,-3.881877594E0,-1.292711792E0,5.685068726E0
7.637911292E0,-3.286415863E0,-3.915407867E0,-2.417772217E0,5.654782974E0
7.647931292E0,-2.326162720E0,-3.877985687E0,-3.365451508E0,5.637026684E0
7.657952292E0,-1.529968414E0,-3.773502960E0,-3.901337128E0,5.639198465E0
7.667973292E0,-1.012195129E0,-3.640579376E0,-4.044738922E0,5.535184742E0
7.677993292E0,-7.635621643E-1,-3.607198792E0,-4.110751648E0,5.522063872E0
7.688014292E0,-5.481600952E-1,-3.672014008E0,-3.761078796E0,5.284872759E0
7.698035292E0,-2.243833923E-1,-3.857777710E0,-3.043920135E0,4.919171328E0
7.708055292E0,1.086740112E-1,-4.118834839E0,-2.426154785E0,4.781509962E0
7.718076292E0,3.800596619E-1,-4.203109589E0,-1.997446289E0,4.669086339E0
7.728097292E0,5.824388123E-1,-4.158801727E0,-1.804347839E0,4.570616797E0
7.738117292E0,8.604107666E-1,-4.342469788E0,-2.231709137E0,4.957607913E0
7.748138292E0,8.394543457E-1,-4.909191284E0,-2.330952759E0,5.498925661E0
7.758159292E0,8.881031799E-1,-5.947432251E0,-1.115330658E0,6.115933299E0
7.768180292E0,-1.851649475E-1,-7.642657013E0,2.830763397E0,8.152160063E0
7.778200292E0,-3.755390625E0,-1.025307861E1,1.129970215E1,1.571342892E1
7.788221292E0,-8.114924927E0,-1.453731949E1,2.173854446E1,2.738156277E1
7.798242292E0,-1.110810059E1,-2.011202682E1,3.138628189E1,3.889707203E1
7.808262292E0,-1.015218842E1,-2.050331314E1,1.766910690E1,2.890761350E1
7.818283292E0,-7.438780975E0,-1.901031784E1,1.389725052E1,2.469536837E1
7.828304292E0,-2.374961243E0,-1.763931885E1,1.699431015E1,2.460879086E1
7.838324292E0,3.074606323E0,-1.496932114E1,1.744592102E1,2.319254060E1
7.848344667E0,5.976471863E0,-1.196731384E1,1.712947906E1,2.173370354E1
7.858365667E0,5.598657532E0,-9.226064301E0,7.362290039E0,1.306401712E1
7.868385667E0,3.234922943E0,-9.474996643E0,-6.417454834E0,1.189218291E1
7.878406667E0,3.006348267E0,-1.224438766E1,-8.453969879E0,1.518001205E1
7.888427667E0,2.836900635E0,-1.532617905E1,-4.035907288E0,1.610056884E1
7.898448667E0,-1.521436157E0,-1.687171509E1,-2.984344025E0,1.720104204E1
7.908468667E0,-8.374036102E0,-1.604483459E1,-5.415887604E0,1.889161286E1
7.918489667E0,-1.063283890E1,-1.352707031E1,-8.621471558E0,1.924496469E1
7.928510667E0,-9.876910858E0,-1.082743423E1,-7.856562195E0,1.662865809E1
7.938530667E0,-7.150330811E0,-8.044870605E0,-5.993985443E0,1.231970110E1
7.948551667E0,-5.329367523E0,-5.839656372E0,-5.460195465E0,9.608198544E0
7.958572667E0,-4.529281311E0,-4.437522125E0,-5.240003357E0,8.225790356E0
7.968592667E0,-4.055067444E0,-4.302502899E0,-4.419559479E0,7.381572269E0
7.978613667E0,-4.569098511E0,-4.818479919E0,-4.056414642E0,7.781317992E0
7.988634667E0,-5.290448456E0,-6.105054474E0,-3.718866577E0,8.893284186E0
7.998654667E0,-5.874384155E0,-7.618257751E0,-3.359314270E0,1.018976117E1
8.008675667E0,-6.943011932E0,-8.862320709E0,-3.313359833E0,1.173560806E1
8.018696667E0,-7.615263977E0,-9.559271393E0,-3.255879364E0,1.264803010E1
8.028716667E0,-7.602091370E0,-9.836195526E0,-2.977757721E0,1.278317553E1
8.038737667E0,-6.068979492E0,-9.447154541E0,1.496288452E0,1.132784711E1
8.048758667E0,-3.444038086E0,-8.825646973E0,7.493567047E0,1.207919658E1
8.058779667E0,-2.042352905E0,-8.555009766E0,6.328988800E0,1.083584315E1
8.068799667E0,-1.728605347E0,-8.357420654E0,4.000880127E0,9.425582116E0
8.078820667E0,-1.824106750E0,-8.127648468E0,2.111958160E0,8.593392946E0
8.088841667E0,-2.220931549E0,-8.081694031E0,1.231638794E0,8.471319229E0
8.098861667E0,-2.493664398E0,-8.083939362E0,4.930746460E-1,8.474170186E0
8.108882667E0,-2.868335266E0,-8.034691772E0,-2.662962341E-1,8.535486674E0
8.118903667E0,-3.616030426E0,-7.866142273E0,-1.381028137E0,8.766932703E0
8.128923667E0,-3.995191956E0,-7.750881958E0,-1.929487610E0,8.930881946E0
8.138944667E0,-3.739523621E0,-7.554190979E0,-1.405427399E0,8.545470404E0
8.148965667E0,-3.780837708E0,-7.836803284E0,-1.067430267E0,8.766391895E0
8.158985667E0,-3.765419769E0,-8.128696289E0,-8.207432556E-1,8.995982931E0
8.169006667E0,-3.569776611E0,-8.223449249E0,-1.453477478E-1,8.966021893E0
8.179027667E0,-3.148851929E0,-8.298892365E0,1.084195404E0,8.942167669E0
8.189048667E0,-2.781216431E0,-8.791517944E0,2.640059967E0,9.591447713E0
8.199068667E0,-2.877166901E0,-9.550888824E0,3.931723938E0,1.072175451E1
8.209089667E0,-3.464695129E0,-9.985135803E0,3.900438995E0,1.126589871E1
8.219110667E0,-3.940106506E0,-9.747729492E0,2.760260010E0,1.087022101E1
8.229130667E0,-4.078269196E0,-9.196276245E0,1.375190277E0,1.015356709E1
8.239151667E0,-4.086502075E0,-8.680748291E0,2.577639771E-1,9.597985850E0
8.249172667E0,-3.973487091E0,-8.408165131E0,-4.993615723E-1,9.313173600E0
8.259192667E0,-3.690575409E0,-8.199948120E0,-1.149908752E0,9.065417043E0
8.269213667E0,-3.280428314E0,-8.099357300E0,-1.784588928E0,8.918831551E0
8.279234667E0,-2.945574646E0,-8.234825592E0,-2.293380890E0,9.041479881E0
8.289254667E0,-2.839295654E0,-8.667575684E0,-2.547552338E0,9.469872806E0
8.299275667E0,-2.692151642E0,-9.442514191E0,-2.488125916E0,1.012914238E1
8.309296667E0,-2.280807037E0,-1.039438477E1,-1.762884064E0,1.078670828E1
8.319317667E0,-1.592388611E0,-1.106813370E1,-1.630110168E-1,1.118328474E1
8.329337667E0,-6.623725891E-1,-1.114731903E1,1.982627106E0,1.134161670E1
8.339358667E0,-2.832110596E-1,-1.098490677E1,3.474724274E0,1.152484681E1
8.349379667E0,-9.318122864E-1,-1.082159637E1,2.942431183E0,1.125313838E1
8.359399667E0,-2.607427826E0,-1.032388138E1,8.816665649E-1,1.068450011E1
8.369420667E0,-4.735103302E0,-9.519753571E0,-1.147214355E0,1.069406434E1
8.379441667E0,-6.595883789E0,-8.892408142E0,-2.403252411E0,1.132944075E1
8.389461667E0,-7.937992859E0,-8.608748016E0,-2.887046356E0,1.206056838E1
8.399482667E0,-9.051078186E0,-8.718769226E0,-2.977308655E0,1.291523596E1
8.409503667E0,-1.038211029E1,-9.510472870E0,-2.553839264E0,1.430941659E1
8.419523667E0,-1.199605408E1,-1.094508957E1,-1.373244324E0,1.629681254E1
8.429544667E0,-1.320987991E1,-1.249152374E1,1.956431580E-1,1.818178674E1
8.439565667E0,-1.234482880E1,-1.289897644E1,2.850522308E0,1.808048309E1
8.449585667E0,-9.550739136E0,-1.219798416E1,5.796246643E0,1.654097672E1
8.459606667E0,-7.681725769E0,-1.228450424E1,6.130351868E0,1.573210632E1
8.469627667E0,-6.866670685E0,-1.264720001E1,4.242926788E0,1.500350833E1
8.479648667E0,-5.951324158E0,-1.221789276E1,2.450404358E0,1.380940420E1
8.489668667E0,-4.605173492E0,-1.159982803E1,1.526525574E0,1.257354022E1
8.499689667E0,-3.326682129E0,-1.136167328E1,6.483018494E-1,1.185642142E1
8.509710667E0,-3.229534149E0,-1.143996048E1,-1.038091278E0,1.193231830E1
8.519730667E0,-4.197421417E0,-1.207898163E1,-2.804717560E0,1.309146991E1
8.529751667E0,-4.806205444E0,-1.306917252E1,-3.323688354E0,1.431606738E1
8.539772667E0,-4.605323181E0,-1.425440781E1,-3.431913300E0,1.536799181E1
8.549792667E0,-4.049079895E0,-1.538904831E1,-3.519780579E0,1.629744493E1
8.559813667E0,-3.671864319E0,-1.624257339E1,-3.261567535E0,1.696884206E1
8.569834667E0,-3.378773804E0,-1.719324646E1,-2.234104156E0,1.766394796E1
8.579855667E0,-2.503843231E0,-1.794692917E1,-3.369493103E-1,1.812388017E1
8.589875667E0,-1.057700500E0,-1.756731857E1,1.514550476E0,1.766418057E1
8.599896667E0,1.935475159E-1,-1.608210709E1,2.823129272E0,1.632916678E1
8.609917667E0,4.995112610E-1,-1.440424622E1,3.378324738E0,1.480354345E1
8.619937667E0,2.992277527E-1,-1.271351212E1,2.740800476E0,1.300903205E1
8.629958667E0,-1.526824951E-1,-1.110031677E1,1.590442657E0,1.121471588E1
8.639979667E0,-4.628375244E-1,-9.387728119E0,-1.712438965E-1,9.400690521E0
8.649999667E0,-9.966275024E-1,-8.103548584E0,-1.898352356E0,8.382392719E0
8.660020667E0,-1.404080200E0,-7.510930939E0,-3.162473602E0,8.269629016E0
8.670041667E0,-1.473835144E0,-6.574328613E0,-2.946173401E0,7.353497430E0
8.680061667E0,-2.079176331E0,-5.718857574E0,-2.167043610E0,6.459441476E0
8.690082667E0,-2.582130432E0,-4.905449066E0,-1.489702148E0,5.740212592E0
8.700103667E0,-3.083737335E0,-4.510719910E0,-2.127974854E0,5.863813353E0
8.710124667E0,-3.230132904E0,-4.685256958E0,-3.321892090E0,6.589412599E0
8.720144667E0,-3.475622406E0,-4.746329956E0,-3.719764709E0,6.960190274E0
8.730165667E0,-3.969595184E0,-4.659959564E0,-3.377276917E0,6.991345252E0
8.740186667E0,-4.488565979E0,-4.509971466E0,-2.582878876E0,6.867192327E0
8.750206667E0,-4.938829651E0,-4.454436951E0,-1.987866211E0,6.941589079E0
8.760227667E0,-5.145849152E0,-4.465513916E0,-1.649719391E0,7.010146368E0
8.770248667E0,-4.808001709E0,-4.363725586E0,-1.524579620E0,6.669582029E0
8.780268667E0,-3.899840240E0,-4.020339661E0,-1.844165039E0,5.896849123E0
8.790289667E0,-2.697540436E0,-3.660338287E0,-2.590513000E0,5.233121285E0
8.800310667E0,-1.466650085E0,-3.706741791E0,-2.835104370E0,4.891708696E0
8.810330667E0,-3.110531616E-1,-3.921545105E0,-2.519261169E0,4.671396678E0
8.820351667E0,6.090834045E-1,-3.888014832E0,-2.056573334E0,4.440398158E0
8.830372667E0,1.196162567E0,-3.676205292E0,-1.659748535E0,4.207143382E0
8.840393667E0,1.540296936E0,-3.511697388E0,-1.362017670E0,4.069351954E0
8.850413208E0,1.930834808E0,-3.400927734E0,-9.382489014E-1,4.021783623E0
8.860434208E0,2.287842407E0,-3.380719757E0,-5.436694336E-1,4.118138585E0
8.870455208E0,2.607427826E0,-3.715723114E0,-2.920426941E-1,4.548688499E0
8.880475208E0,2.576142883E0,-4.798122253E0,4.487667847E-1,5.464419543E0
8.890496208E0,1.632205811E0,-6.624324646E0,2.171534271E0,7.159702083E0
8.900517208E0,-5.038522339E-1,-9.051078186E0,6.556365967E0,1.118757427E1
8.910537208E0,-3.880380707E0,-1.225815903E1,1.566462524E1,2.026574206E1
8.920558208E0,-9.591155090E0,-1.576401855E1,2.020543259E1,2.736337046E1
8.930579208E0,-1.486304214E1,-1.948408264E1,2.103994720E1,3.229889900E1
8.940599208E0,-1.651994659E1,-2.215527786E1,1.915237244E1,3.362407385E1
8.950620208E0,-1.393631927E1,-1.953512650E1,1.479463440E1,2.819083839E1
8.960641208E0,-9.239236908E0,-1.346809296E1,1.079629898E1,1.957838344E1
8.970661208E0,-5.533243561E0,-8.405321045E0,7.668253784E0,1.265181103E1
8.980682208E0,-3.357068939E0,-5.926176453E0,5.969436493E0,9.056690966E0
8.990703208E0,-2.049987030E0,-5.873186646E0,5.781577148E0,8.492549824E0
9.000724208E0,-3.480711823E0,-8.207432556E0,5.332960052E0,1.038834765E1
9.010744208E0,-7.197333069E0,-1.342887451E1,2.225422211E0,1.539768742E1
9.020765208E0,-9.849068756E0,-1.945564178E1,-4.284091187E-1,2.181076998E1
9.030786208E0,-1.031759445E1,-2.178779205E1,2.972817993E-1,2.410910646E1
9.040806208E0,-1.055380325E1,-2.103889938E1,4.296066284E0,2.392643383E1
9.050827208E0,-5.152435455E0,-1.506093063E1,-4.266128540E0,1.647965641E1
9.060848208E0,-8.644523621E-1,-9.644893341E0,-6.932982788E0,1.190955481E1
9.070868208E0,8.797206116E-1,-6.534511414E0,-5.365891571E0,8.500972893E0
9.080889208E0,1.735640717E0,-4.452790375E0,-5.138514404E0,7.017415557E0
9.090910208E0,2.120939484E0,-3.138523407E0,-4.882546692E0,6.179642034E0
9.100931208E0,2.187850342E0,-3.414399719E0,-4.445605316E0,6.017326748E0
9.110951208E0,1.510508881E0,-5.199886780E0,-4.575235748E0,7.088952091E0
9.120972208E0,6.285429382E-1,-7.291786652E0,-4.301305389E0,8.489195890E0
9.130993208E0,-4.718188477E-1,-9.295968933E0,-4.210743713E0,1.021606647E1
9.141013208E0,-1.774110718E0,-1.077998291E1,-4.401297455E0,1.177823924E1
9.151034208E0,-2.758763123E0,-1.129566055E1,-4.693190460E0,1.253908920E1
9.161055208E0,-3.290307770E0,-1.083012863E1,-5.109774170E0,1.241884067E1
9.171075208E0,-3.588188324E0,-9.948611755E0,-5.260660400E0,1.181204974E1
9.181096208E0,-3.773053894E0,-9.292975159E0,-5.141807556E0,1.127091425E1
9.191117208E0,-3.891158295E0,-8.870104523E0,-4.250560913E0,1.057767154E1
9.201137208E0,-4.097429352E0,-8.685987396E0,-3.029250641E0,1.007033583E1
9.211158208E0,-3.051254883E0,-7.932753754E0,2.692600708E0,8.915651241E0
9.221179208E0,-2.172432404E0,-7.530091095E0,6.259383545E0,1.003003573E1
9.231200208E0,-2.914738770E0,-8.163124695E0,6.394851837E0,1.077155685E1
9.241220208E0,-3.722159729E0,-8.702153778E0,6.755451965E0,1.162833112E1
9.251241208E0,-4.880600739E0,-8.777147827E0,6.587351532E0,1.201048657E1
9.261262208E0,-6.414311371E0,-8.756939850E0,4.671485596E0,1.181736703E1
9.271282208E0,-6.853049011E0,-8.331973572E0,1.831890564E0,1.094266363E1
9.281303208E0,-6.017037506E0,-7.686216431E0,4.099974060E-1,9.769890544E0
9.291324208E0,-4.999303894E0,-6.572083282E0,-7.872129822E-1,8.294879286E0
9.301344208E0,-4.046684875E0,-5.273982697E0,-1.786085815E0,6.883360698E0
9.311365208E0,-2.908451843E0,-4.278552704E0,-1.839375000E0,5.490756392E0
9.321386208E0,-2.055525513E0,-3.893104248E0,-1.275796967E0,4.583568885E0
9.331406208E0,-1.904339905E0,-5.233716431E0,1.477427673E-1,5.571366625E0
9.341427208E0,-2.447859650E0,-7.570656738E0,1.505120087E0,8.097669220E0
9.351448208E0,-3.220103760E0,-9.190588074E0,2.494263153E0,1.005272729E1
9.361469208E0,-4.028871918E0,-9.914033661E0,2.993924103E0,1.111231092E1
9.371489208E0,-4.955594788E0,-9.799671478E0,2.568059692E0,1.127769530E1
9.381510208E0,-5.506000214E0,-9.294322357E0,1.644629974E0,1.092727204E1
9.391531208E0,-5.472320251E0,-8.592431946E0,3.165916443E-1,1.019197753E1
9.401551208E0,-5.036576385E0,-8.023016052E0,-1.372495880E0,9.571814520E0
9.411572208E0,-4.632267151E0,-7.686665497E0,-2.710263977E0,9.374873665E0
9.421593208E0,-4.315675507E0,-7.681875458E0,-3.087329865E0,9.336373564E0
9.431613208E0,-3.982618103E0,-8.124055939E0,-2.651885376E0,9.428362949E0
9.441634208E0,-3.510649567E0,-8.829538879E0,-1.283431091E0,9.588149590E0
9.451655208E0,-3.379073181E0,-9.968071289E0,9.512718201E-1,1.056813602E1
9.461675208E0,-3.414250031E0,-1.032477951E1,2.928061066E0,1.126195884E1
9.471696208E0,-3.840862885E0,-1.011341904E1,3.561394043E0,1.138933711E1
9.481717208E0,-5.114713898E0,-1.003962250E1,2.499801636E0,1.154137454E1
9.491738208E0,-7.094796295E0,-1.039633072E1,2.579136658E-1,1.258913604E1
9.501758208E0,-8.335865479E0,-1.067220703E1,-1.425934753E0,1.361675241E1
9.511779208E0,-8.665629730E0,-1.092398346E1,-1.681603088E0,1.404472649E1
9.521800208E0,-8.184530182E0,-1.049916687E1,-8.479866028E-1,1.333934483E1
9.531820208E0,-7.256160736E0,-9.133406982E0,2.526745605E-1,1.166768341E1
9.541841208E0,-6.623725891E0,-8.196056213E0,9.315129089E-1,1.057907361E1
9.551862208E0,-6.569538574E0,-8.564589844E0,9.861492920E-1,1.083898181E1
9.561882208E0,-7.090006256E0,-1.002854553E1,2.450404358E-1,1.228413444E1
9.571903208E0,-7.708070984E0,-1.146166534E1,-6.747967529E-1,1.382893638E1
9.581924208E0,-7.985893250E0,-1.203167999E1,-7.369175720E-1,1.445955954E1
9.591945208E0,-7.749684448E0,-1.179651901E1,3.156935120E-1,1.411790113E1
9.601965208E0,-7.290439453E0,-1.087832840E1,1.451082458E0,1.317551428E1
9.611986208E0,-7.104675751E0,-9.947414246E0,2.110610962E0,1.240492428E1
9.622007208E0,-7.388934631E0,-9.645192719E0,2.364033966E0,1.237799476E1
9.632027208E0,-6.901847534E0,-9.285790100E0,2.027234344E0,1.174610898E1
9.642048208E0,-5.552403717E0,-9.001980286E0,8.652008057E-1,1.061194650E1
9.652069208E0,-4.280947723E0,-9.398356018E0,-4.191284180E-3,1.032742111E1
9.662089208E0,-3.956272888E0,-1.006417145E1,-5.643264771E-2,1.081401067E1
9.672110208E0,-4.298910370E0,-1.051278854E1,-2.195933533E-1,1.135991085E1
9.682131208E0,-4.565505981E0,-1.118069962E1,-1.499581604E0,1.216966038E1
9.692151208E0,-4.899910583E0,-1.226279938E1,-2.626438293E0,1.346415799E1
9.702172208E0,-4.859195251E0,-1.345432159E1,-2.517913971E0,1.452482147E1
9.712193208E0,-4.487218781E0,-1.447669556E1,-1.879790955E0,1.527231026E1
9.722214208E0,-4.079317017E0,-1.530567169E1,-6.960525513E-1,1.585524842E1
9.732234208E0,-3.521427155E0,-1.610306351E1,8.514294434E-1,1.650557589E1
9.742255208E0,-2.787952423E0,-1.653671173E1,2.040406952E0,1.689374956E1
9.752276208E0,-2.024839325E0,-1.608255615E1,2.437680817E0,1.639179290E1
9.762296208E0,-1.805695038E0,-1.465796860E1,2.505489807E0,1.497978829E1
9.772317208E0,-2.273621979E0,-1.275437714E1,2.380200348E0,1.317227569E1
9.782338208E0,-2.942281494E0,-1.078552139E1,1.880090332E0,1.133663229E1
9.792358208E0,-3.276386719E0,-9.182055817E0,8.894503784E-1,9.789585330E0
9.802379208E0,-3.176394653E0,-8.051007843E0,-5.812413025E-1,8.674448209E0
9.812400208E0,-2.721191254E0,-7.610473938E0,-3.464844818E0,8.793710537E0
9.822420208E0,-2.239343262E0,-7.392826538E0,-6.395749969E0,1.002866692E1
9.832441208E0,-2.714305573E0,-6.338868256E0,-5.332510986E0,8.716901911E0
9.842462542E0,-3.011287994E0,-5.371879120E0,-3.400179291E0,7.034639996E0
9.852483542E0,-3.726800079E0,-4.807103577E0,-2.388882294E0,6.534832993E0
9.862503542E0,-4.364623718E0,-4.445006561E0,-1.945653992E0,6.526376712E0
9.872524542E0,-5.260361023E0,-4.242627411E0,-1.599573669E0,6.944776552E0
9.882545542E0,-6.773713989E0,-4.297263794E0,-9.324110413E-1,8.075832321E0
9.892565542E0,-7.891140289E0,-4.549938354E0,-5.165757751E-1,9.123534656E0
9.902586542E0,-8.335566101E0,-4.880900116E0,-6.265969849E-1,9.679745449E0
9.912607542E0,-7.909552002E0,-4.936135254E0,-1.060245209E0,9.383526204E0
9.922627542E0,-6.310427399E0,-4.703968048E0,-1.280137939E0,7.974180992E0
9.932648542E0,-4.285438385E0,-4.247567139E0,-1.518442383E0,6.221935070E0
9.942669542E0,-2.776276703E0,-4.097579041E0,-1.638642426E0,5.213733338E0
9.952690542E0,-1.784888306E0,-4.288881226E0,-1.396595764E0,4.850856436E0
9.962710542E0,-8.675958252E-1,-4.355642395E0,-1.126257935E0,4.581790057E0
9.972731542E0,6.256988525E-2,-4.380191345E0,-9.566606140E-1,4.483881214E0
9.982752542E0,9.833052063E-1,-4.485572205E0,-8.916957092E-1,4.677859379E0
9.992772542E0,1.739233246E0,-4.602778473E0,-9.720785522E-1,5.015519780E0
1.000279354E1,2.324366455E0,-4.604724426E0,-1.029858398E0,5.259921556E0
1.001281454E1,2.717748413E0,-4.384083252E0,-9.794132996E-1,5.250294545E0
1.002283454E1,2.911744995E0,-3.960015106E0,-8.425978088E-1,4.986978005E0
1.003285554E1,3.187321930E0,-3.680845642E0,-5.745053101E-1,4.902825928E0
1.004287654E1,3.389850769E0,-4.247417450E0,5.394781494E-1,5.461014549E0
1.005289654E1,2.590213623E0,-6.012546844E0,2.391427002E0,6.969852888E0
1.006291754E1,6.665638733E-1,-8.992549896E0,4.920268250E0,1.027225879E1
1.007293854E1,-2.358345795E0,-1.316512299E1,1.085258194E1,1.722384373E1
1.008295954E1,-7.541018372E0,-1.779334854E1,1.943977478E1,2.741122131E1
1.009297954E1,-1.247730331E1,-2.030287994E1,2.038925034E1,3.136258218E1
1.010300054E1,-1.466395615E1,-2.021321640E1,2.065659439E1,3.240834181E1
1.011302154E1,-1.406969193E1,-1.765458710E1,1.949605774E1,2.982845862E1
1.012304154E1,-1.265498383E1,-1.249451752E1,1.320658676E1,2.215119675E1
1.013306254E1,-1.188693100E1,-7.025340729E0,8.370144196E0,1.614663602E1
1.014308354E1,-1.149025589E1,-3.939507751E0,6.124963074E0,1.360370811E1
1.015310354E1,-1.164024399E1,-1.835782471E0,5.086422729E0,1.283499410E1
1.016312454E1,-1.223795105E1,-8.101153564E-1,3.671564941E0,1.280250452E1
1.017314554E1,-1.271351212E1,-3.334765320E0,-6.692582703E-1,1.316062144E1
1.018316654E1,-1.074540482E1,-9.737550659E0,-7.513176270E0,1.633191462E1
1.019318654E1,-7.643854523E0,-1.515283951E1,-9.967472534E0,1.968216365E1
1.020320754E1,-7.820786591E0,-1.786340286E1,-6.336173859E0,2.050397434E1
1.021322854E1,-1.135778137E1,-2.104458755E1,7.584577789E0,2.508783935E1
1.022324854E1,-8.174950104E0,-1.972463242E1,3.725752258E0,2.167422808E1
1.023326954E1,-2.859204254E0,-1.476110413E1,-5.665568390E0,1.606747986E1
1.024329054E1,2.754272461E-1,-1.087772964E1,-5.117258606E0,1.202444169E1
1.025331054E1,6.118526459E0,-7.298971710E0,9.915380859E-1,9.575724611E0
1.026333154E1,1.155312515E1,-4.811145172E0,3.722608795E0,1.305678501E1
1.027335254E1,8.244405670E0,-5.815257111E0,-3.139421539E0,1.056614441E1
1.028337254E1,5.071902924E0,-7.807763672E0,-4.657714233E0,1.041055593E1
1.029339354E1,3.010689240E0,-9.090296631E0,-3.150947571E0,1.008098275E1
1.030341454E1,1.532363434E0,-9.902357941E0,-2.403701477E0,1.030449471E1
1.031343554E1,5.574407959E-1,-9.439071350E0,-3.331621857E0,1.002529363E1
1.032345554E1,-4.909790039E-2,-9.212292938E0,-4.778513031E0,1.037800263E1
1.033347654E1,-5.604345703E-1,-8.726403351E0,-5.798192596E0,1.049205603E1
1.034349754E1,-8.904981995E-1,-7.847730560E0,-6.169270935E0,1.002196417E1
1.035351754E1,-9.759704590E-1,-7.270381165E0,-6.122568054E0,9.554935907E0
1.036353854E1,-1.207239532E0,-7.358098755E0,-5.538033600E0,9.288103182E0
1.037355954E1,-1.808090057E0,-7.891289978E0,-4.231101379E0,9.134761412E0
1.038357954E1,-2.853815460E0,-8.703950043E0,-3.563040619E0,9.828441763E0
1.039360054E1,-3.519630890E0,-9.420060883E0,-3.156186676E0,1.053977528E1
1.040362154E1,-3.572171631E0,-9.643845520E0,-2.522254944E0,1.058895352E1
1.041364254E1,-4.057163086E0,-9.791588287E0,4.583468628E-1,1.060876314E1
1.042366254E1,-5.150489502E0,-9.743538208E0,5.345084839E0,1.224883712E1
1.043368354E1,-5.877377930E0,-9.109307098E0,5.857768707E0,1.232219548E1
1.044370454E1,-6.052364044E0,-8.873697052E0,5.686225433E0,1.215346739E1
1.045372454E1,-5.728886719E0,-8.782536621E0,5.044958954E0,1.163635267E1
1.046374554E1,-4.724774780E0,-8.981772308E0,3.072660370E0,1.060363015E1
1.047376654E1,-3.510799255E0,-9.326206055E0,6.966513062E-1,9.989452129E0
1.048378654E1,-2.779869232E0,-9.361831970E0,-3.561094666E-1,9.772327499E0
1.049380754E1,-2.598296814E0,-8.907826080E0,-7.346722412E-1,9.308074726E0
1.050382854E1,-2.708617401E0,-8.287066956E0,-5.731581116E-1,8.737310637E0
1.051384954E1,-3.247796173E0,-7.728428650E0,-3.082090759E-1,8.388789079E0
1.052386954E1,-4.259991302E0,-7.710765381E0,1.347198486E-3,8.809280928E0
1.053389054E1,-5.264701996E0,-7.882308655E0,1.537303162E-1,9.480058536E0
1.054391154E1,-5.730682983E0,-7.989036713E0,-2.136058044E-1,9.834178282E0
1.055393154E1,-5.487289124E0,-8.049510956E0,-1.245709534E0,9.821240288E0
1.056395254E1,-5.078339539E0,-7.950716400E0,-2.258503418E0,9.700735098E0
1.057397354E1,-4.954846344E0,-7.840844879E0,-2.737058258E0,9.670617282E0
1.058399354E1,-4.912484436E0,-7.795189819E0,-2.660567322E0,9.590417412E0
1.059401454E1,-4.908891907E0,-8.413254547E0,-2.095492401E0,9.963491367E0
1.060403554E1,-4.829556885E0,-9.518705750E0,-1.158590698E0,1.073651299E1
1.061405554E1,-4.375401306E0,-1.030591873E1,2.781216431E-1,1.119970755E1
1.062407654E1,-3.430416412E0,-1.045111679E1,2.397713928E0,1.125800298E1
1.063409754E1,-2.495310974E0,-1.018571869E1,4.369862823E0,1.136094816E1
1.064411854E1,-2.406545563E0,-1.018467087E1,4.467609558E0,1.137886275E1
1.065413854E1,-3.657194824E0,-1.077639038E1,2.474055176E0,1.164588394E1
1.066415954E1,-5.598956909E0,-1.111812973E1,-8.098159790E-2,1.244860174E1
1.067418054E1,-7.134014740E0,-1.060394897E1,-2.013013916E0,1.293793358E1
1.068420054E1,-7.982300720E0,-9.725425873E0,-2.943928070E0,1.292159997E1
1.069422154E1,-8.297994232E0,-8.856033783E0,-2.939138031E0,1.248697622E1
1.070424254E1,-8.139922943E0,-8.196954346E0,-2.074685669E0,1.173681075E1
1.071426254E1,-7.611671448E0,-8.477471008E0,-6.345304871E-1,1.141085824E1
1.072428354E1,-7.083120575E0,-9.793234863E0,4.751119995E-1,1.209560985E1
1.073430454E1,-6.615642700E0,-1.160880936E1,1.048419800E0,1.340262538E1
1.074432554E1,-6.150410156E0,-1.316063232E1,1.779200134E0,1.463541395E1
1.075434554E1,-5.523513794E0,-1.385473892E1,3.447480927E0,1.530843297E1
1.076436654E1,-5.031486969E0,-1.329235840E1,4.799768829E0,1.500134773E1
1.077438754E1,-5.595214691E0,-1.249346970E1,4.167333984E0,1.430943343E1
1.078440754E1,-6.602021027E0,-1.186881866E1,3.357967072E0,1.399040675E1
1.079442854E1,-7.166197815E0,-1.102831650E1,4.020040283E0,1.375277717E1
1.080444954E1,-7.390730896E0,-1.067819458E1,3.856729889E0,1.354699628E1
1.081446954E1,-7.191944275E0,-1.046937881E1,1.169218597E0,1.275535289E1
1.082449054E1,-6.665039978E0,-1.040411453E1,-2.227218475E0,1.255503322E1
1.083451154E1,-5.950276337E0,-1.079719711E1,-4.270768890E0,1.304701962E1
1.084453208E1,-5.653443604E0,-1.158650574E1,-4.708458710E0,1.372509101E1
1.085455308E1,-5.299280090E0,-1.270707550E1,-4.101321259E0,1.436568736E1
1.086457408E1,-4.722828827E0,-1.398915939E1,-3.142714691E0,1.509564004E1
1.087459508E1,-4.269721069E0,-1.527393768E1,-1.976190491E0,1.598214689E1
1.088461508E1,-3.498824158E0,-1.637370071E1,-5.890251160E-1,1.675370992E1
1.089463608E1,-2.166145477E0,-1.699416046E1,8.701405334E-1,1.715374072E1
1.090465708E1,-8.092172241E-1,-1.702469696E1,2.098336487E0,1.717259896E1
1.091467708E1,-6.960525513E-2,-1.596475113E1,2.753374329E0,1.620059239E1
1.092469808E1,-4.016148376E-1,-1.439616302E1,2.884501648E0,1.468778928E1
1.093471908E1,-1.211580505E0,-1.271934998E1,2.460732880E0,1.301172538E1
1.094473908E1,-1.599573669E0,-1.142588974E1,1.775757294E0,1.167317036E1
1.095476008E1,-1.555116119E0,-1.007075775E1,-1.278341675E-1,1.019092191E1
1.096478108E1,-1.838476868E0,-8.856183472E0,-2.806513824E0,9.470401402E0
1.097480208E1,-2.613864441E0,-7.882158966E0,-3.949836273E0,9.195755753E0
1.098482208E1,-3.673510895E0,-7.027885437E0,-3.585793304E0,8.703089660E0
1.099484308E1,-4.097579041E0,-5.987698517E0,-2.181413727E0,7.576361486E0
1.100486408E1,-4.437821503E0,-5.046455841E0,-1.109492798E0,6.811163668E0
1.101488408E1,-4.629273376E0,-4.584366760E0,-1.303190002E0,6.644162458E0
1.102490508E1,-4.619393921E0,-4.384083252E0,-1.670226746E0,6.583968677E0
1.103492608E1,-4.659510498E0,-4.320016479E0,-2.315983887E0,6.762940324E0
1.104494608E1,-4.821473694E0,-4.274361420E0,-2.434237976E0,6.887836282E0
1.105496708E1,-4.908592529E0,-4.154760132E0,-2.144141235E0,6.778912450E0
1.106498808E1,-4.822222137E0,-4.010909271E0,-2.166893921E0,6.636011512E0
1.107500808E1,-4.257296906E0,-3.795507202E0,-2.208357697E0,6.116150389E0
1.108502908E1,-3.026107178E0,-3.503913574E0,-2.296674042E0,5.168118288E0
1.109505008E1,-1.949994965E0,-3.270997925E0,-2.514321442E0,4.563301447E0
1.110507108E1,-1.334325256E0,-3.076851654E0,-2.718796234E0,4.317324745E0
1.111509108E1,-8.422984314E-1,-2.925516357E0,-2.741099854E0,4.096552332E0
1.112511208E1,-2.597099304E-1,-2.780018921E0,-2.436932373E0,3.706021295E0
1.113513308E1,3.326083374E-1,-2.622247009E0,-2.175426178E0,3.423344379E0
1.114515308E1,8.512797546E-1,-2.528841248E0,-1.917213135E0,3.285638672E0
1.115517408E1,1.160836029E0,-2.524051208E0,-1.701811066E0,3.257995656E0
1.116519508E1,1.292861481E0,-2.631527710E0,-1.406175842E0,3.251731753E0
1.117521508E1,1.434467010E0,-2.823278961E0,-1.223555603E0,3.394950369E0
1.118523608E1,1.745969238E0,-3.332669678E0,-1.277293854E0,3.973232355E0
1.119525708E1,1.628463593E0,-4.655917969E0,-3.736230469E-1,4.946621067E0
1.120527808E1,2.230361938E-1,-6.992109833E0,2.265089722E0,7.353228985E0
1.121529808E1,-2.250120850E0,-1.067295547E1,8.361462250E0,1.374369213E1
1.122531908E1,-6.383625183E0,-1.634525986E1,1.930834808E1,2.609081248E1
1.123534008E1,-1.203602097E1,-2.193867828E1,2.647903656E1,3.643227666E1
1.124536008E1,-1.414034500E1,-2.495221161E1,2.454909988E1,3.775209300E1
1.125538108E1,-1.213526459E1,-2.307197159E1,1.970352631E1,3.267735406E1
1.126540208E1,-8.048612823E0,-1.747705627E1,1.270004013E1,2.305468897E1
1.127542208E1,-4.607269135E0,-1.223016724E1,9.506580963E0,1.616103342E1
1.128544308E1,-2.782413940E0,-8.020022278E0,6.796616364E0,1.087458407E1
1.129546408E1,-1.430575104E0,-5.838159485E0,4.855303345E0,7.726876592E0
1.130548408E1,-1.095122681E0,-6.371799774E0,6.172414398E0,8.938558360E0
1.131550508E1,-4.294719086E0,-9.886041870E0,8.174800415E0,1.352796355E1
1.132552608E1,-9.715396729E0,-1.497605713E1,7.405250702E0,1.932637986E1
1.133554708E1,-1.434212540E1,-1.976684464E1,4.873265991E0,2.490328149E1
1.134556708E1,-1.578138245E1,-2.090432922E1,6.817423096E0,2.706511167E1
1.135558808E1,-1.340073303E1,-1.718336700E1,7.908953247E0,2.318187414E1
1.136560908E1,-5.699547729E0,-9.925410004E0,-6.527775421E0,1.317613221E1
1.137562908E1,-2.835104370E-1,-4.803960114E0,-1.200787949E1,1.293628929E1
1.138565008E1,1.227447510E0,-2.352507935E0,-9.440268860E0,9.806099995E0
1.139567108E1,1.709445190E0,-1.224453735E0,-7.494315491E0,7.783717266E0
1.140569108E1,1.955234070E0,-1.025517426E0,-5.715414734E0,6.127037770E0
1.141571208E1,1.700912933E0,-1.460662537E0,-4.850213928E0,5.343333697E0
1.142573308E1,2.024090881E0,-3.030597839E0,-4.112847290E0,5.495177885E0
1.143575408E1,1.900148621E0,-5.177583160E0,-2.881507874E0,6.222621617E0
1.144577408E1,7.924520874E-1,-7.611072693E0,-2.305954742E0,7.992110805E0
1.145579508E1,-2.969824219E-1,-9.787846069E0,-3.022215271E0,1.024811760E1
1.146581608E1,-1.038390656E0,-1.128712830E1,-4.364324341E0,1.214598070E1
1.147583608E1,-2.093247070E0,-1.224618393E1,-5.833070068E0,1.372499219E1
1.148585708E1,-2.744393005E0,-1.221744370E1,-6.515650635E0,1.411564120E1
1.149587808E1,-2.904859314E0,-1.178843582E1,-6.254294128E0,1.365729189E1
1.150589808E1,-2.923720093E0,-1.141316620E1,-5.297334137E0,1.291782686E1
1.151591908E1,-2.920576630E0,-1.093086914E1,-4.108656006E0,1.203722236E1
1.152594008E1,-3.098107452E0,-1.041249710E1,-3.095562744E0,1.129605570E1
1.153596108E1,-3.507057037E0,-1.008812164E1,-2.150278473E0,1.089464753E1
1.154598108E1,-4.493954773E0,-9.071286163E0,4.478686523E0,1.106989138E1
1.155600208E1,-5.240302734E0,-8.181985474E0,1.179636932E1,1.528266954E1
1.156602308E1,-5.909710693E0,-7.937693481E0,1.105630829E1,1.483824825E1
1.157604308E1,-6.180198212E0,-7.760911102E0,7.929460602E0,1.270050930E1
1.158606408E1,-5.744154968E0,-7.948471069E0,4.318968658E0,1.071573604E1
1.159608508E1,-5.011129303E0,-8.181985474E0,1.270108795E0,9.678299413E0
1.160610508E1,-4.135300598E0,-8.364006958E0,-7.685018921E-1,9.362046709E0
1.161612608E1,-3.550017700E0,-8.364156647E0,-1.736987915E0,9.250884774E0
1.162614708E1,-3.143014069E0,-8.127349091E0,-1.788181458E0,8.895500750E0
1.163616808E1,-2.598745880E0,-7.713160400E0,-1.822460175E0,8.340724465E0
1.164618808E1,-2.251468048E0,-7.364235992E0,-1.982028351E0,7.951698970E0
1.165620908E1,-2.473007355E0,-7.103029175E0,-1.584904175E0,7.686397731E0
1.166623008E1,-2.971470795E0,-6.918313293E0,-6.328839111E-1,7.556006852E0
1.167625008E1,-3.935017090E0,-6.744524689E0,5.595364380E-1,7.828540975E0
1.168627108E1,-4.937632141E0,-6.736291809E0,1.971699829E0,8.581692066E0
1.169629208E1,-5.494923248E0,-7.343578949E0,2.397115173E0,9.479899495E0
1.170631208E1,-5.546565857E0,-8.008496246E0,1.260678406E0,9.822917844E0
1.171633308E1,-5.306016083E0,-8.280929718E0,-5.445675659E-1,9.850084137E0
1.172635408E1,-5.000800781E0,-8.401129761E0,-1.549727325E0,9.898921380E0
1.173637508E1,-4.665797424E0,-8.651409302E0,-1.668580170E0,9.969990386E0
1.174639508E1,-4.232149200E0,-9.238638153E0,-1.072968750E0,1.021835524E1
1.175641608E1,-3.595223694E0,-9.724827118E0,1.971400452E-1,1.036999325E1
1.176643708E1,-2.664758606E0,-9.849667511E0,1.943408661E0,1.038719046E1
1.177645708E1,-1.817221069E0,-9.920470276E0,3.582799530E0,1.070301244E1
1.178647808E1,-1.649869080E0,-1.029948212E1,4.034859467E0,1.118398367E1
1.179649908E1,-2.604284363E0,-1.115166000E1,2.825524292E0,1.179514330E1
1.180651908E1,-4.471950531E0,-1.164518372E1,5.939648438E-1,1.248845225E1
1.181654008E1,-6.486760712E0,-1.118578903E1,-1.505269775E0,1.301790221E1
1.182656108E1,-7.947872314E0,-1.034678375E1,-2.567311249E0,1.329720630E1
1.183658108E1,-8.681047668E0,-9.526040497E0,-2.868035889E0,1.320347174E1
1.184660217E1,-9.097481689E0,-8.843759308E0,-2.640059967E0,1.295940463E1
1.185662317E1,-9.449998627E0,-8.327333221E0,-1.628164215E0,1.270030989E1
1.186664417E1,-9.545949097E0,-8.655301208E0,-2.043251038E-1,1.288724687E1
1.187666417E1,-8.985664215E0,-1.044587769E1,7.744894409E-1,1.380066505E1
1.188668517E1,-8.143066406E0,-1.245245499E1,1.486858063E0,1.495272258E1
1.189670617E1,-7.332052917E0,-1.388243134E1,2.772085419E0,1.594256433E1
1.190672617E1,-6.468947754E0,-1.416818710E1,4.555027771E0,1.622754106E1
1.191674717E1,-5.953719177E0,-1.343441299E1,4.885989532E0,1.548557775E1
1.192676817E1,-6.057902527E0,-1.249781067E1,3.878883820E0,1.442009689E1
1.193678817E1,-6.271658020E0,-1.152348679E1,3.790268097E0,1.365615518E1
1.194680917E1,-6.313121796E0,-1.071756271E1,3.908971252E0,1.303847052E1
1.195683017E1,-6.092330933E0,-1.032283356E1,1.923500061E0,1.213990285E1
1.196685117E1,-6.121669922E0,-1.049003586E1,-1.491648102E0,1.223685862E1
1.197687117E1,-6.481820984E0,-1.065169968E1,-3.853736115E0,1.305082340E1
1.198689217E1,-6.231092377E0,-1.081111816E1,-4.531676331E0,1.327564983E1
1.199691317E1,-5.610932007E0,-1.173829010E1,-4.422553253E0,1.374150609E1
1.200693317E1,-5.155728607E0,-1.289089325E1,-4.014501801E0,1.445243547E1
1.201695417E1,-4.682263184E0,-1.394889313E1,-3.490591278E0,1.512215049E1
1.202697517E1,-4.097579041E0,-1.504835678E1,-2.765948181E0,1.583962326E1
1.203699517E1,-3.353326721E0,-1.634076920E1,-1.391206970E0,1.673920532E1
1.204701617E1,-2.251468048E0,-1.737975861E1,7.108717346E-1,1.753939726E1
1.205703717E1,-7.412585449E-1,-1.786714508E1,2.459535370E0,1.805086291E1
1.206705817E1,3.203338623E-1,-1.744726822E1,3.053051147E0,1.771527317E1
1.207707817E1,3.146456909E-1,-1.595621887E1,2.594404907E0,1.616882369E1
1.208709917E1,-9.879455566E-2,-1.387599472E1,1.641336823E0,1.397308042E1
1.209712017E1,-7.288343811E-1,-1.185849014E1,3.999682617E-1,1.188759701E1
1.210714017E1,-1.193917236E0,-9.997709656E0,-1.188678131E0,1.013866818E1
1.211716117E1,-1.901346130E0,-8.328081665E0,-1.909579010E0,8.753202461E0
1.212718217E1,-2.308349762E0,-6.615792389E0,-1.305435333E0,7.127506504E0
1.213720217E1,-3.051554260E0,-5.617518311E0,-2.174228668E0,6.752463674E0
1.214722317E1,-3.660038910E0,-4.970264282E0,-3.338357849E0,7.017410134E0
1.215724417E1,-4.080215149E0,-4.215833130E0,-2.322420502E0,6.309916135E0
1.216726517E1,-4.286935272E0,-3.850293274E0,-2.172731781E0,6.158192569E0
1.217728517E1,-4.426145782E0,-3.782933350E0,-2.630330200E0,6.389052213E0
1.218730617E1,-4.515509949E0,-3.689377899E0,-2.662962341E0,6.410359414E0
1.219732717E1,-4.660857697E0,-3.478915558E0,-2.762804718E0,6.438908125E0
1.220734717E1,-4.538562012E0,-3.117566986E0,-2.551593933E0,6.068640758E0
1.221736817E1,-4.107308807E0,-2.872975616E0,-2.328707428E0,5.526920736E0
1.222738917E1,-3.278632050E0,-2.767445068E0,-2.481090546E0,4.956207282E0
1.223740917E1,-2.068099365E0,-2.758014679E0,-2.654130707E0,4.350642454E0
1.224743017E1,-1.241218872E0,-2.775677948E0,-2.867137756E0,4.179173516E0
1.225745117E1,-7.006929016E-1,-2.891237640E0,-2.796933746E0,4.083266342E0
1.226747217E1,-2.652484131E-1,-3.077001343E0,-2.552492065E0,4.006683133E0
1.227749217E1,9.460327148E-2,-3.268902283E0,-2.332449646E0,4.016838715E0
1.228751317E1,3.746708679E-1,-3.445235596E0,-2.199226685E0,4.104463982E0
1.229753417E1,5.622308350E-1,-3.598666534E0,-2.136507111E0,4.222696647E0
1.230755417E1,6.774911499E-1,-3.723955994E0,-2.038161621E0,4.298946998E0
1.231757517E1,7.999365234E-1,-3.926933899E0,-1.781894531E0,4.385870086E0
1.232759617E1,9.539662170E-1,-4.467310181E0,-1.640588379E0,4.853703949E0
1.233761617E1,7.484436035E-1,-5.580545197E0,-1.675914917E0,5.874635591E0
1.234763717E1,-2.769241333E-2,-7.620353394E0,-2.309696960E-1,7.623903181E0
1.235765817E1,-1.355581055E0,-1.103116058E1,4.668042755E0,1.205465582E1
1.236767917E1,-3.333567810E0,-1.663894913E1,1.671514069E1,2.381938770E1
1.237769917E1,-8.112080841E0,-2.355501709E1,2.956801300E1,3.866409288E1
1.238772017E1,-1.308189606E1,-2.774166092E1,3.331382355E1,4.528296141E1
1.239774117E1,-1.193632828E1,-2.676060104E1,2.404674454E1,3.790582572E1
1.240776117E1,-5.441334686E0,-2.058070221E1,1.509026962E1,2.609386257E1
1.241778217E1,-1.977388000E-1,-1.607507172E1,1.165955383E1,1.985931084E1
1.242780317E1,1.766027527E0,-1.189696014E1,8.050858154E0,1.447317626E1
1.243782317E1,2.786605225E0,-7.996371460E0,4.287983093E0,9.491781930E0
1.244784417E1,4.612657928E0,-6.412515106E0,1.554966431E0,8.050769140E0
1.245786517E1,5.101840668E0,-7.243437195E0,7.324269104E-1,8.890028671E0
1.246788517E1,1.121916962E0,-9.942175140E0,1.275347900E0,1.008623103E1
1.247790617E1,-4.648583221E0,-1.389769958E1,1.200204163E0,1.470360057E1
1.248792717E1,-1.041893372E1,-1.662862061E1,-6.909631348E-1,1.963523957E1
1.249794817E1,-1.275228149E1,-1.540326874E1,-4.256398773E0,2.044500677E1
1.250796817E1,-8.968749390E0,-1.107696533E1,-6.875502319E0,1.582435334E1
1.251798917E1,-4.946463776E0,-7.197632446E0,-6.251150665E0,1.074012576E1
1.252801017E1,-2.913990326E0,-4.771178284E0,-4.648583221E0,7.270818922E0
1.253803017E1,-1.309476929E0,-3.469784546E0,-4.175417175E0,5.584643517E0
1.254805117E1,-4.349954224E-1,-3.057392120E0,-3.876788177E0,4.956445719E0
1.255807217E1,-3.598516846E-1,-3.896098022E0,-3.348536682E0,5.149929218E0
1.256809217E1,-7.655081177E-1,-5.570216675E0,-2.920277252E0,6.335719037E0
1.257811317E1,-1.479822693E0,-7.475604401E0,-2.822829895E0,8.126678594E0
1.258813417E1,-2.773133240E0,-8.873697052E0,-3.403023376E0,9.900168455E0
1.259815517E1,-3.590283966E0,-1.011880783E1,-4.321663055E0,1.157398732E1
1.260817517E1,-3.705095215E0,-1.119387222E1,-5.303770752E0,1.292905604E1
1.261819617E1,-3.892505493E0,-1.154010223E1,-6.275998993E0,1.370086574E1
1.262821717E1,-4.222269745E0,-1.093416229E1,-6.183491364E0,1.325213312E1
1.263823717E1,-4.187841339E0,-9.993069305E0,-5.286855927E0,1.205613101E1
1.264825817E1,-3.971541138E0,-9.290430450E0,-4.176315308E0,1.093283342E1
1.265827917E1,-3.902235260E0,-8.868308258E0,-3.302582245E0,1.023627769E1
1.266829917E1,-3.754941559E0,-8.361761627E0,-5.146298218E-1,9.180603873E0
1.267832017E1,-3.620670776E0,-8.117020569E0,6.740333405E0,1.115470189E1
1.268834117E1,-3.729344788E0,-9.005273438E0,7.705226898E0,1.242471262E1
1.269836217E1,-3.929478607E0,-9.411079559E0,6.040089569E0,1.185292802E1
1.270838217E1,-4.238585815E0,-9.353150024E0,3.365601196E0,1.080621564E1
1.271840317E1,-4.273313599E0,-9.348060608E0,5.938151550E-1,1.029563318E1
1.272842417E1,-4.154610443E0,-9.049132233E0,-1.645977173E0,1.009241413E1
1.273844417E1,-3.933819580E0,-8.852291565E0,-2.744692383E0,1.006833346E1
1.274846517E1,-3.546425171E0,-8.392298126E0,-2.719694366E0,9.508130036E0
1.275848617E1,-3.247047729E0,-8.052205353E0,-2.077529755E0,8.927343383E0
1.276850617E1,-3.106639709E0,-8.094267883E0,-1.335223389E0,8.772183556E0
1.277852717E1,-2.946921844E0,-7.779622192E0,-6.351292419E-1,8.343276273E0
1.278854817E1,-2.686164093E0,-7.410340118E0,2.055226135E-1,7.884849888E0
1.279856917E1,-2.569706268E0,-7.348069611E0,1.162332916E0,7.870739172E0
1.280858917E1,-2.846630402E0,-7.634873199E0,2.039059753E0,8.399545112E0
1.281861017E1,-3.916306000E0,-8.435258789E0,1.802551575E0,9.473132307E0
1.282863117E1,-4.755311279E0,-8.987460480E0,3.478765869E-1,1.017391023E1
1.283865117E1,-4.992118835E0,-9.089847565E0,-1.259181519E0,1.044663186E1
1.284867129E1,-4.816084900E0,-9.068741455E0,-2.221679993E0,1.050583682E1
1.285869229E1,-4.581073608E0,-9.125323792E0,-2.438878326E0,1.049789966E1
1.286871229E1,-4.385729828E0,-9.322014771E0,-2.217039642E0,1.053801928E1
1.287873329E1,-4.116589508E0,-9.677824860E0,-1.467997284E0,1.061892740E1
1.288875429E1,-3.687581635E0,-9.845476227E0,7.185058594E-3,1.051340630E1
1.289877529E1,-3.162772980E0,-9.627529449E0,2.325264587E0,1.039708188E1
1.290879529E1,-2.672841797E0,-9.179810486E0,4.874912567E0,1.073209096E1
1.291881629E1,-2.636467438E0,-9.003626862E0,6.013594666E0,1.114358910E1
1.292883729E1,-3.434158630E0,-9.529932404E0,4.635260925E0,1.113995965E1
1.293885729E1,-5.026098175E0,-1.018467087E1,1.720222778E0,1.148687729E1
1.294887829E1,-6.760840759E0,-1.022014709E1,-1.164129181E0,1.230916614E1
1.295889929E1,-8.036787415E0,-9.875713348E0,-3.028502197E0,1.308783755E1
1.296891929E1,-8.682394867E0,-9.029073944E0,-3.469036102E0,1.299778321E1
1.297894029E1,-9.024583282E0,-7.968229980E0,-2.836002502E0,1.236845595E1
1.298896129E1,-9.386979675E0,-7.264842682E0,-1.356928253E0,1.194715786E1
1.299898229E1,-9.861941986E0,-7.489974518E0,3.420387268E-1,1.238848693E1
1.300900229E1,-1.001881577E1,-9.454638977E0,1.260379028E0,1.383312773E1
1.301902329E1,-9.207353210E0,-1.124850861E1,2.381547546E0,1.473010753E1
1.302904429E1,-7.650889893E0,-1.220457047E1,4.376598816E0,1.505464292E1
1.303906429E1,-6.389463043E0,-1.248733246E1,5.303471375E0,1.499618347E1
1.304908529E1,-5.932313690E0,-1.245320343E1,3.846101990E0,1.432016487E1
1.305910629E1,-5.791456604E0,-1.207194626E1,2.696193237E0,1.365804942E1
1.306912629E1,-5.308261414E0,-1.158021881E1,3.108136597E0,1.311257488E1
1.307914729E1,-5.180277557E0,-1.163620239E1,2.279160461E0,1.293951522E1
1.308916829E1,-5.873036957E0,-1.193572952E1,-5.252577209E-1,1.331277950E1
1.309918929E1,-6.865622864E0,-1.231608856E1,-3.138373718E0,1.444549080E1
1.310920929E1,-7.187902679E0,-1.267653900E1,-4.177213440E0,1.515947552E1
1.311923029E1,-6.868616638E0,-1.345656693E1,-4.376299438E0,1.572924298E1
1.312925129E1,-6.238726501E0,-1.487277191E1,-4.207001495E0,1.666793071E1
1.313927129E1,-5.630241852E0,-1.624107651E1,-3.866309967E0,1.761875541E1
1.314929229E1,-4.993166656E0,-1.730730927E1,-3.260370026E0,1.830586463E1
1.315931329E1,-4.131408691E0,-1.818628143E1,-1.952988739E0,1.875162753E1
1.316933329E1,-2.677781525E0,-1.842099335E1,-9.669891357E-2,1.861485591E1
1.317935429E1,-7.035369873E-1,-1.765997589E1,1.894759827E0,1.777525886E1
1.318937529E1,5.677693176E-1,-1.608704681E1,3.464695129E0,1.646570829E1
1.319939629E1,5.352868652E-1,-1.405771683E1,3.837719421E0,1.458197602E1
1.320941629E1,2.326162720E-1,-1.212867828E1,2.700384521E0,1.242783263E1
1.321943729E1,-2.724334717E-1,-1.050126251E1,9.415420532E-1,1.054690646E1
1.322945829E1,-9.737251282E-1,-9.170230408E0,-6.730004883E-1,9.246307155E0
1.323947829E1,-1.515149231E0,-7.837851105E0,-1.821112976E0,8.188042477E0
1.324949929E1,-1.782642975E0,-6.699318695E0,-3.491788788E0,7.762169535E0
1.325952029E1,-2.971919861E0,-6.126310272E0,-3.678300934E0,7.739113836E0
1.326954029E1,-3.866010590E0,-5.582341461E0,-2.542911987E0,7.250860324E0
1.327956129E1,-3.841761017E0,-4.816683655E0,-2.341730347E0,6.591150898E0
1.328958229E1,-3.923640747E0,-4.236789551E0,-2.394271088E0,6.251229995E0
1.329960329E1,-3.974983978E0,-4.085304565E0,-2.975213013E0,6.429782538E0
1.330962329E1,-3.952231293E0,-4.116589508E0,-3.807033234E0,6.860025030E0
1.331964429E1,-3.815415802E0,-3.985013123E0,-4.366569672E0,7.035954663E0
1.332966529E1,-3.183879089E0,-3.725901947E0,-3.949536896E0,6.294304812E0
1.333968529E1,-2.526895294E0,-3.587888947E0,-2.984493713E0,5.307103697E0
1.334970629E1,-2.065105591E0,-3.632196808E0,-2.469265137E0,4.853327216E0
1.335972729E1,-1.700314178E0,-3.733386383E0,-2.440225525E0,4.773252853E0
1.336974729E1,-1.359922028E0,-3.735032959E0,-2.761158142E0,4.839819564E0
1.337976829E1,-9.014254761E-1,-3.647165680E0,-3.016227722E0,4.817884915E0
1.338978929E1,-3.752696228E-1,-3.536096649E0,-3.141517181E0,4.744885352E0
1.339981029E1,1.212478638E-1,-3.490591278E0,-3.258873138E0,4.776942814E0
1.340983029E1,5.969586182E-1,-3.377875671E0,-3.115920410E0,4.634151880E0
1.341985129E1,1.108444977E0,-3.336860962E0,-2.766097870E0,4.473766732E0
1.342987229E1,1.701362000E0,-3.443888397E0,-2.295775909E0,4.474995751E0
1.343989229E1,1.794917450E0,-3.871848450E0,-1.957329712E0,4.695112211E0
1.344991329E1,1.556613007E0,-4.697531433E0,-2.475402374E0,5.533304847E0
1.345993429E1,1.460063782E0,-6.042035522E0,-2.120789795E0,6.567779599E0
1.346995429E1,3.387455750E-1,-8.109536133E0,6.761439514E-1,8.144721941E0
1.347997529E1,-1.799707489E0,-1.123892853E1,7.511380005E0,1.363720247E1
1.348999629E1,-4.330494690E0,-1.567210968E1,1.895957336E1,2.497666167E1
1.350001729E1,-9.398356018E0,-2.181458633E1,3.168356369E1,3.959865504E1
1.351003729E1,-1.226624222E1,-2.545950668E1,2.580768265E1,3.827118580E1
1.352005829E1,-9.217532043E0,-2.373090134E1,2.024016037E1,3.252357095E1
1.353007929E1,-2.877765656E0,-1.836755447E1,1.631966309E1,2.473822944E1
1.354009929E1,1.261277161E0,-1.405532181E1,1.289164169E1,1.911379912E1
1.355012029E1,2.909948730E0,-1.075258987E1,8.832532654E0,1.421617472E1
1.356014129E1,4.213587799E0,-8.065976715E0,4.857548676E0,1.031552624E1
1.357016129E1,5.936205597E0,-6.781048737E0,1.903890839E0,9.211186633E0
1.358018229E1,7.894283752E0,-7.555089111E0,7.923023987E-1,1.095567572E1
1.359020329E1,8.406668243E0,-1.001013382E1,1.146465912E0,1.312208955E1
1.360022429E1,3.973636780E0,-1.364502502E1,2.163900146E0,1.437563776E1
1.361024429E1,-3.556903381E0,-1.805590256E1,4.968917084E0,1.906193368E1
1.362026529E1,-1.161614410E1,-2.080194214E1,3.561843109E0,2.409029529E1
1.363028629E1,-1.704819809E1,-1.823433151E1,1.904040527E0,2.503512081E1
1.364030629E1,-1.372959915E1,-1.266935394E1,-2.365530853E0,1.883109552E1
1.365032729E1,-7.271728363E0,-7.679031372E0,-7.556286621E0,1.299780842E1
1.366034829E1,-3.329077148E0,-5.024601288E0,-6.750811615E0,9.050018244E0
1.367036829E1,-9.725276184E-1,-3.925586700E0,-5.329217834E0,6.690037641E0
1.368038929E1,2.092648315E-1,-3.741469574E0,-4.809797974E0,6.097256997E0
1.369041029E1,3.472778320E-1,-4.149221649E0,-4.616699524E0,6.216957188E0
1.370043129E1,2.161505127E-1,-5.019661560E0,-4.588857422E0,6.804508480E0
1.371045129E1,-2.294728088E-1,-6.588998108E0,-3.310216370E0,7.377335986E0
1.372047229E1,-1.400936737E0,-8.373137970E0,-2.606978760E0,8.880788335E0
1.373049329E1,-2.663411407E0,-9.328002319E0,-3.289709015E0,1.024341608E1
1.374051329E1,-3.707789612E0,-9.939929810E0,-4.844525757E0,1.166273288E1
1.375053429E1,-3.240461426E0,-1.075932587E1,-6.701264648E0,1.308321945E1
1.376055529E1,-3.019520874E0,-1.082653610E1,-7.022796021E0,1.325334125E1
1.377057529E1,-2.715802460E0,-1.040321640E1,-6.739884338E0,1.268970194E1
1.378059629E1,-3.694467316E0,-9.764195251E0,-6.688241730E0,1.239843438E1
1.379061729E1,-4.592300262E0,-9.345815277E0,-5.268144836E0,1.166991152E1
1.380063829E1,-4.248465271E0,-8.875942383E0,-3.627556458E0,1.048765828E1
1.381065829E1,-3.984713745E0,-8.261021118E0,-2.088307343E0,9.406563724E0
1.382067929E1,-4.732109528E0,-7.383246460E0,6.482569427E0,1.090545255E1
1.383070029E1,-5.279221802E0,-8.144712982E0,1.232237549E1,1.568590036E1
1.384072029E1,-5.593867493E0,-8.731193390E0,1.083671494E1,1.499864934E1
1.385074192E1,-5.380561066E0,-8.462202759E0,6.929390259E0,1.218916577E1
1.386076292E1,-4.833448792E0,-8.447832642E0,3.115471344E0,1.021930845E1
1.387078292E1,-4.501888275E0,-8.791967010E0,-2.261796570E-1,9.880123440E0
1.388080392E1,-3.937262421E0,-8.921747131E0,-1.927841034E0,9.940632691E0
1.389082492E1,-3.357817383E0,-8.619974670E0,-2.389181671E0,9.554427767E0
1.390084592E1,-3.171604614E0,-8.333171082E0,-2.466121674E0,9.251084921E0
1.391086592E1,-3.398832092E0,-8.333919525E0,-1.958676910E0,9.211009146E0
1.392088692E1,-3.606749725E0,-8.209228821E0,-1.342707825E0,9.066584016E0
1.393090792E1,-3.584146729E0,-7.689958649E0,-6.116281128E-1,8.506213067E0
1.394092792E1,-3.569327545E0,-7.098987579E0,4.956193542E-1,7.961241255E0
1.395094892E1,-3.641477509E0,-6.826105042E0,1.794618073E0,7.942085526E0
1.396096992E1,-3.893253937E0,-7.158264313E0,2.085163879E0,8.411069052E0
1.397098992E1,-4.383484497E0,-7.857909393E0,6.381230164E-1,9.020469908E0
1.398101092E1,-4.781506805E0,-8.422385559E0,-1.038540344E0,9.740531396E0
1.399103192E1,-4.977599030E0,-8.699758759E0,-1.951491852E0,1.021129840E1
1.400105292E1,-5.060526581E0,-8.914113007E0,-2.199526062E0,1.048371379E1
1.401107292E1,-4.943470001E0,-9.288035431E0,-1.930685120E0,1.069733812E1
1.402109392E1,-4.466861115E0,-9.831854553E0,-9.671388245E-1,1.084221240E1
1.403111492E1,-3.594924316E0,-1.031594788E1,9.855505371E-1,1.096875432E1
1.404113492E1,-2.284399567E0,-1.063164139E1,4.185146942E0,1.165185543E1
1.405115592E1,-1.162183228E0,-1.083656525E1,7.257358246E0,1.309393237E1
1.406117692E1,-1.138682098E0,-1.118713623E1,7.162904663E0,1.333250979E1
1.407119692E1,-2.694247284E0,-1.161898819E1,3.539240112E0,1.244130522E1
1.408121792E1,-5.045408020E0,-1.121647522E1,-5.469625854E-1,1.231115862E1
1.409123892E1,-7.021149445E0,-1.015593063E1,-2.824027405E0,1.266548844E1
1.410125992E1,-8.313711548E0,-9.374405823E0,-3.464994507E0,1.300013351E1
1.411127992E1,-9.090296631E0,-8.552914124E0,-3.407963104E0,1.293831694E1
1.412130092E1,-9.746382294E0,-7.641609192E0,-2.561323700E0,1.264699719E1
1.413132192E1,-1.054167847E1,-7.023095398E0,-1.095272369E0,1.271418403E1
1.414134192E1,-1.152273834E1,-7.377857666E0,2.059716797E-1,1.368388494E1
1.415136292E1,-1.204634949E1,-9.534572754E0,1.313817902E0,1.541910280E1
1.416138392E1,-1.123683289E1,-1.171763306E1,3.078498230E0,1.652411841E1
1.417140392E1,-9.517358551E0,-1.264630188E1,4.920268250E0,1.657462231E1
1.418142492E1,-8.082292786E0,-1.272758286E1,4.398004303E0,1.570532597E1
1.419144592E1,-7.449259186E0,-1.238434662E1,2.035916290E0,1.459480931E1
1.420146692E1,-6.592141571E0,-1.161973663E1,1.428928528E0,1.343564091E1
1.421148692E1,-5.570366364E0,-1.129176865E1,1.791773987E0,1.271784080E1
1.422150792E1,-5.274880829E0,-1.178978302E1,5.013075256E-1,1.292573637E1
1.423152892E1,-5.641318817E0,-1.224977646E1,-1.695075073E0,1.359245308E1
1.424154892E1,-6.291267242E0,-1.260229340E1,-3.583697662E0,1.453412300E1
1.425156992E1,-6.203699341E0,-1.326316910E1,-4.431085510E0,1.529810638E1
1.426159092E1,-5.713169403E0,-1.454136108E1,-4.365671539E0,1.622191650E1
1.427161092E1,-5.149142303E0,-1.597058899E1,-4.158502350E0,1.728775639E1
1.428163192E1,-4.787344666E0,-1.741119324E1,-3.829336853E0,1.845893116E1
1.429165292E1,-4.306843872E0,-1.857083176E1,-3.365152130E0,1.935843344E1
1.430167392E1,-3.065774689E0,-1.910611862E1,-2.483335876E0,1.950922090E1
1.431169392E1,-7.704478455E-1,-1.903456741E1,-2.510279846E-1,1.905180730E1
1.432171492E1,1.881287842E0,-1.752331009E1,2.719993744E0,1.783266683E1
1.433173592E1,3.173400879E0,-1.539952652E1,4.502487030E0,1.635506893E1
1.434175592E1,2.395618286E0,-1.315599197E1,3.465443573E0,1.381406569E1
1.435177692E1,1.239721985E0,-1.132649643E1,9.111552429E-1,1.143051337E1
1.436179792E1,-7.604187012E-2,-9.770482178E0,-6.770420837E-1,9.794206978E0
1.437181792E1,-1.443897400E0,-8.275989990E0,-6.697073364E-1,8.427654356E0
1.438183892E1,-3.031196594E0,-6.944508820E0,-1.159488831E0,7.665426921E0
1.439185992E1,-3.429069214E0,-6.046376495E0,-4.282594299E0,8.164422719E0
1.440188092E1,-3.370989990E0,-5.335654449E0,-4.762795715E0,7.906769564E0
1.441190092E1,-4.113446045E0,-4.668342133E0,-3.407364349E0,7.093940262E0
1.442192192E1,-4.497397614E0,-4.141737213E0,-2.939287720E0,6.783803117E0
1.443194292E1,-4.623435516E0,-3.854634247E0,-2.254761200E0,6.427931955E0
1.444196292E1,-4.833748169E0,-3.969445496E0,-2.262994080E0,6.651523217E0
1.445198392E1,-5.168751526E0,-4.055666199E0,-2.666405182E0,7.090425745E0
1.446200492E1,-5.527555389E0,-4.063000946E0,-3.246299286E0,7.589486433E0
1.447202492E1,-5.010380859E0,-3.849544830E0,-3.630999298E0,7.287459616E0
1.448204592E1,-3.730392609E0,-3.470832367E0,-3.534899139E0,6.201452915E0
1.449206692E1,-2.767445068E0,-3.331472168E0,-3.340154114E0,5.469377343E0
1.450208792E1,-1.968855743E0,-3.283272400E0,-3.660637665E0,5.296842333E0
1.451210792E1,-1.091829529E0,-3.309318237E0,-3.776347046E0,5.138528576E0
1.452212892E1,-3.047662354E-1,-3.502566376E0,-3.551813965E0,4.997623047E0
1.453214992E1,1.715432739E-1,-3.659889221E0,-3.304827576E0,4.934176883E0
1.454216992E1,4.595443726E-1,-3.719465332E0,-3.153791656E0,4.898163452E0
1.455219092E1,7.345225525E-1,-3.814966736E0,-2.965034180E0,4.887220300E0
1.456221192E1,1.135688324E0,-3.906725922E0,-2.567161560E0,4.810677070E0
1.457223292E1,1.406175842E0,-3.993246002E0,-2.063758392E0,4.709824077E0
1.458225292E1,1.105301514E0,-4.216581573E0,-2.445464630E0,4.998154545E0
1.459227392E1,8.678952026E-1,-4.986730042E0,-3.002905426E0,5.885419236E0
1.460229492E1,2.574645996E-1,-6.439758453E0,-1.913021851E0,6.722828985E0
1.461231492E1,-1.392703857E0,-8.912466431E0,2.038760376E0,9.248147154E0
1.462233592E1,-2.526595917E0,-1.239302856E1,1.139789795E1,1.702594848E1
1.463235692E1,-4.945565643E0,-1.751822067E1,2.683035599E1,3.242244096E1
1.464237692E1,-9.875713348E0,-2.336790619E1,2.982592667E1,3.915577423E1
1.465239792E1,-1.074166260E1,-2.500130951E1,1.846934280E1,3.288716187E1
1.466241892E1,-5.683980103E0,-2.269071442E1,1.589155334E1,2.827927896E1
1.467243992E1,3.200344849E-1,-1.841874802E1,1.591460541E1,2.434393900E1
1.468245992E1,3.520678711E0,-1.491498413E1,1.487741226E1,2.135858904E1
1.469248092E1,5.203030243E0,-1.172691376E1,1.080812439E1,1.677520738E1
1.470250192E1,6.779851227E0,-9.596543884E0,6.316714325E0,1.334019929E1
1.471252192E1,9.015452271E0,-1.001327728E1,4.064048767E0,1.407340023E1
1.472254292E1,1.119596786E1,-1.288266037E1,2.078278198E0,1.719394879E1
1.473256392E1,1.136511612E1,-1.640318939E1,-7.920030212E-1,1.997142347E1
1.474258392E1,8.628506927E0,-2.040706329E1,-7.304809570E-2,2.215636929E1
1.475260492E1,8.036787415E-1,-2.135399414E1,1.158740387E0,2.140050571E1
1.476262592E1,-6.093378754E0,-1.660137726E1,-1.169817352E0,1.772296432E1
1.477264692E1,-9.446406097E0,-1.057475967E1,-3.259771271E0,1.454944119E1
1.478266692E1,-9.357041931E0,-6.300398254E0,-7.131919098E0,1.334591780E1
1.479268792E1,-6.782395935E0,-4.042792969E0,-8.069569244E0,1.128995205E1
1.480270892E1,-4.222419434E0,-3.283571777E0,-6.354435883E0,8.305993311E0
1.481272892E1,-3.232827301E0,-3.434907074E0,-5.359904022E0,7.139911070E0
1.482274992E1,-3.213218079E0,-4.465513916E0,-5.233866119E0,7.593348373E0
1.483277092E1,-3.347788239E0,-6.240822144E0,-4.844376068E0,8.580415293E0
1.484279092E1,-4.077371063E0,-7.873477020E0,-4.562512207E0,9.971615356E0
1.485281133E1,-5.398673401E0,-9.407337341E0,-4.611161041E0,1.178585917E1
1.486283233E1,-6.379134521E0,-1.097218323E1,-4.764142914E0,1.355651945E1
1.487285333E1,-7.594906311E0,-1.199231186E1,-5.218298492E0,1.512378209E1
1.488287333E1,-8.754395142E0,-1.172661438E1,-5.868546295E0,1.576682450E1
1.489289433E1,-8.158334656E0,-1.097203354E1,-6.578370209E0,1.517296606E1
1.490291533E1,-7.176526337E0,-9.693093109E0,-6.393354950E0,1.365040555E1
1.491293533E1,-6.866670685E0,-8.406817932E0,-4.901706848E0,1.191018405E1
1.492295633E1,-6.490951996E0,-7.570956116E0,-3.205134888E0,1.047495699E1
1.493297733E1,-5.611979828E0,-5.912854156E0,1.825753326E0,8.354013232E0
1.494299733E1,-4.306843872E0,-5.112468567E0,8.134983215E0,1.052920657E1
1.495301833E1,-3.481759644E0,-6.243366852E0,8.815318451E0,1.134954269E1
1.496303933E1,-2.823278961E0,-7.464078369E0,7.166796570E0,1.072596583E1
1.497306033E1,-2.880010986E0,-8.857680359E0,3.930227051E0,1.010938422E1
1.498308033E1,-3.274590454E0,-9.777966614E0,1.088536377E0,1.036901563E1
1.499310133E1,-3.502266998E0,-9.994566193E0,-9.461824036E-1,1.063261438E1
1.500312233E1,-3.942651215E0,-9.597591705E0,-2.212848358E0,1.060919238E1
1.501314233E1,-4.359085236E0,-8.887318726E0,-2.479743347E0,1.020466488E1
1.502316333E1,-4.637506256E0,-8.421038361E0,-2.202819214E0,9.862695566E0
1.503318433E1,-4.777315521E0,-8.333171082E0,-1.897903290E0,9.791145018E0
1.504320433E1,-4.130360870E0,-8.604556732E0,-8.321195984E-1,9.580746344E0
1.505322533E1,-3.706592102E0,-8.592132568E0,4.549040222E-1,9.368591396E0
1.506324633E1,-3.215762787E0,-8.248896332E0,2.400408325E0,9.173188166E0
1.507326733E1,-2.415526886E0,-7.975115662E0,5.157824249E0,9.800019946E0
1.508328733E1,-2.265838165E0,-8.126750336E0,6.527176666E0,1.066687062E1
1.509330833E1,-2.911744995E0,-8.531059570E0,5.110971680E0,1.036239682E1
1.510332933E1,-3.992048492E0,-8.796307983E0,2.126627655E0,9.891108658E0
1.511334933E1,-5.015021210E0,-8.881031799E0,-5.920188904E-1,1.021634230E1
1.512337033E1,-5.694907379E0,-8.799750824E0,-2.524949341E0,1.078160256E1
1.513339133E1,-5.574108582E0,-8.440797272E0,-3.255430298E0,1.062617389E1
1.514341133E1,-5.143304443E0,-8.093519440E0,-3.277284851E0,1.013406303E1
1.515343233E1,-4.822671204E0,-8.095016327E0,-3.154689789E0,9.936775862E0
1.516345333E1,-4.512067108E0,-8.618777161E0,-2.864143982E0,1.014127162E1
1.517347433E1,-4.425247650E0,-9.472002869E0,-2.370769958E0,1.072017748E1
1.518349433E1,-4.305646362E0,-1.029753616E1,-1.327888641E0,1.124015702E1
1.519351533E1,-3.545527039E0,-1.069196594E1,1.128054199E0,1.132083937E1
1.520353633E1,-2.427651672E0,-1.058044785E1,5.568420410E0,1.220027357E1
1.521355633E1,-1.985171814E0,-1.050665131E1,8.564739532E0,1.369983183E1
1.522357733E1,-2.698737946E0,-1.057311310E1,5.934858398E0,1.242161227E1
1.523359833E1,-4.182003479E0,-1.032388138E1,1.338516541E0,1.121888169E1
1.524361833E1,-5.578299866E0,-9.797875214E0,-1.566342773E0,1.138284753E1
1.525363933E1,-6.729855194E0,-9.336085510E0,-3.106490021E0,1.192072665E1
1.526366033E1,-7.695497131E0,-9.105115814E0,-3.456462250E0,1.241253163E1
1.527368133E1,-8.693172455E0,-8.972790985E0,-2.409988403E0,1.272361071E1
1.528370133E1,-1.001387604E1,-8.939260712E0,-2.314187622E-1,1.342541061E1
1.529372233E1,-1.123578506E1,-9.362580414E0,1.650617523E0,1.471819677E1
1.530374333E1,-1.134041748E1,-9.904453583E0,3.539689178E0,1.546714805E1
1.531376333E1,-1.039303757E1,-1.035067566E1,5.547314301E0,1.568197731E1
1.532378433E1,-9.424551544E0,-1.108879074E1,4.650080109E0,1.527765351E1
1.533380533E1,-8.805738373E0,-1.160641434E1,1.372645569E0,1.463331944E1
1.534382533E1,-7.800428925E0,-1.153336624E1,2.468367004E-1,1.392573720E1
1.535384633E1,-6.737040253E0,-1.167137924E1,4.317022705E-1,1.348314398E1
1.536386733E1,-6.246510315E0,-1.194321396E1,-1.069675598E0,1.352048286E1
1.537388833E1,-6.031257935E0,-1.205533081E1,-2.982847137E0,1.380595706E1
1.538390833E1,-5.729036407E0,-1.253044281E1,-3.775897980E0,1.428605126E1
1.539392933E1,-5.649851074E0,-1.378243927E1,-4.131558380E0,1.545788550E1
1.540395033E1,-5.410049744E0,-1.538994644E1,-4.089795227E0,1.681801162E1
1.541397033E1,-5.097050629E0,-1.690180252E1,-3.674109650E0,1.803191435E1
1.542399133E1,-4.652175751E0,-1.806817703E1,-3.272195435E0,1.894225497E1
1.543401233E1,-3.761378174E0,-1.852487732E1,-2.874622192E0,1.912021177E1
1.544403333E1,-2.336790619E0,-1.814885925E1,-1.904938660E0,1.839756706E1
1.545405333E1,-1.965412903E-1,-1.671573944E1,2.339634705E-1,1.671853201E1
1.546407433E1,1.831890564E0,-1.472368195E1,2.765349426E0,1.509270653E1
1.547409533E1,2.493065643E0,-1.278431488E1,4.198768616E0,1.368516500E1
1.548411533E1,1.784888306E0,-1.148262177E1,3.691922607E0,1.219289635E1
1.549413633E1,8.951385498E-1,-1.051727921E1,1.791923676E0,1.070632642E1
1.550415733E1,-2.664459229E-2,-9.423204346E0,1.933978271E-1,9.425226405E0
1.551417733E1,-6.572831726E-1,-8.208330688E0,-1.119222565E0,8.310317263E0
1.552419833E1,-1.528022461E0,-7.419022064E0,-2.770438843E0,8.065486496E0
1.553421933E1,-3.003803558E0,-6.903494110E0,-3.614832916E0,8.351531821E0
1.554424033E1,-3.708987122E0,-6.291416931E0,-3.909719696E0,8.283985790E0
1.555426033E1,-4.007466431E0,-5.369484100E0,-3.209924927E0,7.429317918E0
1.556428133E1,-4.642296295E0,-4.818479919E0,-2.593357086E0,7.175943464E0
1.557430233E1,-4.886887665E0,-4.613556061E0,-2.633473663E0,7.218154481E0
1.558432233E1,-4.593797150E0,-4.405189362E0,-2.841391296E0,6.970091109E0
1.559434333E1,-4.548291779E0,-4.354594574E0,-3.327430573E0,7.121885019E0
1.560436433E1,-4.504133606E0,-4.266876984E0,-3.504811707E0,7.125809697E0
1.561438433E1,-4.092040558E0,-4.196074219E0,-3.401825867E0,6.776743614E0
1.562440533E1,-3.194656677E0,-4.173620911E0,-3.140619049E0,6.122779663E0
1.563442633E1,-2.322869568E0,-4.183949432E0,-2.888842621E0,5.589862929E0
1.564444733E1,-1.700763245E0,-4.165238342E0,-2.935395813E0,5.371997267E0
1.565446733E1,-1.146465912E0,-4.188739471E0,-3.065774689E0,5.315909789E0
1.566448833E1,-5.647755432E-1,-4.218527527E0,-2.954406281E0,5.181067687E0
1.567450933E1,1.869612122E-1,-4.355343018E0,-2.699336700E0,5.127415130E0
1.568452933E1,7.351213074E-1,-4.540208588E0,-2.525398407E0,5.247050073E0
1.569455033E1,1.052162018E0,-4.624333649E0,-2.286644897E0,5.265002516E0
1.570457133E1,1.302890625E0,-4.634362793E0,-1.957629089E0,5.196840784E0
1.571459133E1,1.480122070E0,-4.673581238E0,-1.581910400E0,5.151268139E0
1.572461233E1,1.488205261E0,-4.728516998E0,-1.941163330E0,5.323696364E0
1.573463333E1,1.799408112E0,-5.086422729E0,-2.917133789E0,6.133452150E0
1.574465433E1,2.009122009E0,-5.930966492E0,-1.856439514E0,6.531408917E0
1.575467433E1,1.206491089E0,-7.703879700E0,1.496887207E0,7.940154563E0
1.576469533E1,-4.323010254E-1,-1.084869003E1,8.292904816E0,1.366210928E1
1.577471633E1,-4.046684875E0,-1.576371918E1,2.295731003E1,2.814087036E1
1.578473633E1,-1.036908737E1,-2.169363785E1,2.891447205E1,3.760556594E1
1.579475733E1,-1.268357437E1,-2.454416016E1,1.981145187E1,3.399680105E1
1.580477833E1,-9.867929535E0,-2.251707550E1,1.802042633E1,3.048164181E1
1.581479933E1,-3.278781738E0,-1.850302277E1,1.733919296E1,2.556872843E1
1.582481933E1,1.076860657E0,-1.517768784E1,1.420845337E1,2.081830887E1
1.583484033E1,2.957100677E0,-1.181567917E1,9.827513580E0,1.565039111E1
1.584486133E1,4.341122589E0,-1.004501129E1,6.360722809E0,1.265726636E1
1.585488142E1,5.867199097E0,-1.079360458E1,4.144132233E0,1.296532904E1
1.586490242E1,6.675218811E0,-1.361344070E1,1.655557251E0,1.525205507E1
1.587492342E1,6.246210938E0,-1.775787231E1,1.212328949E0,1.886337514E1
1.588494342E1,-1.095721436E-1,-2.115415970E1,5.764662323E0,2.192582519E1
1.589496442E1,-9.242080994E0,-1.762674500E1,4.611161041E0,2.042990471E1
1.590498542E1,-1.258133698E1,-1.213182175E1,-6.022276611E0,1.848618280E1
1.591500642E1,-9.540410614E0,-7.518864441E0,-1.161195282E1,1.680446981E1
1.592502642E1,-5.604645081E0,-4.145928497E0,-9.841883698E0,1.206082270E1
1.593504742E1,-3.105591888E0,-2.274071045E0,-7.457641754E0,8.392408512E0
1.594506842E1,-1.781295776E0,-1.602567444E0,-6.730603638E0,7.144386774E0
1.595508842E1,-1.469494171E0,-1.993853760E0,-6.573580170E0,7.024729332E0
1.596510942E1,-1.886826324E0,-3.478167114E0,-6.169420624E0,7.329359514E0
1.597513042E1,-2.291734314E0,-5.764512634E0,-4.688250732E0,7.775689488E0
1.598515042E1,-3.401676178E0,-7.873177643E0,-3.953279114E0,9.443873293E0
1.599517142E1,-5.595514069E0,-9.585766296E0,-4.690795441E0,1.204990685E1
1.600519242E1,-7.164551239E0,-1.145058838E1,-6.141279144E0,1.483785962E1
1.601521342E1,-7.069947968E0,-1.241413467E1,-6.808890839E0,1.582579851E1
1.602523342E1,-6.762786713E0,-1.233030899E1,-6.466403046E0,1.547857139E1
1.603525442E1,-6.245013428E0,-1.149848877E1,-5.601800995E0,1.423360851E1
1.604527542E1,-5.508245544E0,-1.042237656E1,-4.452191620E0,1.260113932E1
1.605529542E1,-4.932542725E0,-9.185049591E0,-3.136427765E0,1.088725369E1
1.606531642E1,-4.511618042E0,-8.079448700E0,-2.150278473E0,9.500309793E0
1.607533742E1,-3.467389526E0,-7.142846375E0,2.321073303E0,8.272268476E0
1.608535742E1,-1.918260956E0,-7.115752716E0,8.949888611E0,1.159371243E1
1.609537842E1,-1.539099426E0,-8.595276031E0,1.024993515E1,1.346509442E1
1.610539942E1,-1.486259308E0,-9.736802216E0,8.917855225E0,1.328692688E1
1.611542042E1,-1.922601929E0,-1.014530273E1,5.861211548E0,1.187338901E1
1.612544042E1,-2.732268219E0,-1.024095383E1,2.990181885E0,1.101288394E1
1.613546142E1,-3.322191467E0,-9.894723816E0,9.131011963E-1,1.047741711E1
1.614548242E1,-3.456611938E0,-9.271869049E0,-6.099815369E-1,9.914020336E0
1.615550242E1,-3.943848724E0,-8.678203583E0,-1.987716522E0,9.737359866E0
1.616552342E1,-3.869603119E0,-8.388705597E0,-2.024989014E0,9.457525596E0
1.617554442E1,-3.496279449E0,-8.057444458E0,-1.301842804E0,8.879255367E0
1.618556442E1,-3.414549408E0,-7.817792816E0,-1.130598907E0,8.605538104E0
1.619558542E1,-3.209924927E0,-7.801327057E0,-3.905378723E-1,8.444929941E0
1.620560642E1,-2.992427216E0,-7.912246399E0,5.869294739E-1,8.479548922E0
1.621562742E1,-2.883453827E0,-8.214168549E0,1.523382111E0,8.837848379E0
1.622564742E1,-2.889890442E0,-8.489745483E0,1.692680054E0,9.126467603E0
1.623566842E1,-3.082689514E0,-8.705895996E0,1.340163116E0,9.332290014E0
1.624568942E1,-3.553909607E0,-8.691675568E0,5.352868652E-1,9.405425546E0
1.625570942E1,-3.996988220E0,-8.513246613E0,-4.394860840E-1,9.415117139E0
1.626573042E1,-4.246669006E0,-8.428223419E0,-1.097966766E0,9.501298789E0
1.627575142E1,-4.433929596E0,-8.558003540E0,-1.529219971E0,9.758978941E0
1.628577142E1,-4.551884308E0,-8.981023865E0,-1.678309937E0,1.020760328E1
1.629579242E1,-4.543052673E0,-9.624535675E0,-1.243164825E0,1.071524490E1
1.630581342E1,-4.295617218E0,-1.015712814E1,2.001338196E-1,1.102994256E1
1.631583442E1,-3.814218292E0,-1.025906616E1,2.860551453E0,1.131280046E1
1.632585442E1,-3.382516022E0,-1.012165192E1,5.885461121E0,1.218720250E1
1.633587542E1,-3.542832642E0,-1.011192215E1,6.615343323E0,1.259227541E1
1.634589642E1,-4.374802551E0,-1.024813889E1,3.747008057E0,1.175599070E1
1.635591642E1,-5.686225433E0,-1.032672546E1,6.406677246E-2,1.178891526E1
1.636593742E1,-6.844666443E0,-1.001417542E1,-1.952090607E0,1.228591981E1
1.637595842E1,-7.473957825E0,-9.558073883E0,-2.066452789E0,1.230800752E1
1.638597942E1,-7.936495972E0,-9.225465546E0,-1.421743469E0,1.225228702E1
1.639599942E1,-8.685688019E0,-9.058113556E0,-6.613247681E-1,1.256693869E1
1.640602042E1,-9.879605255E0,-9.432185669E0,5.807922363E-2,1.365928621E1
1.641604142E1,-1.118369339E1,-1.034813095E1,5.177732849E-1,1.524555349E1
1.642606142E1,-1.206356369E1,-1.101469482E1,1.582658844E0,1.641212600E1
1.643608242E1,-1.230605942E1,-1.112875763E1,3.223845978E0,1.690211607E1
1.644610342E1,-1.217942276E1,-1.087787933E1,3.626209259E0,1.672770131E1
1.645612342E1,-1.157857224E1,-1.058793228E1,1.869911499E0,1.580076625E1
1.646614442E1,-1.016116974E1,-1.031115784E1,5.080435181E-1,1.448542214E1
1.647616542E1,-8.166268158E0,-1.009815079E1,1.225052490E0,1.304459039E1
1.648618642E1,-6.421346741E0,-1.010234207E1,1.289867706E0,1.203971628E1
1.649620642E1,-5.371130676E0,-1.043031006E1,-6.944059753E-1,1.175255769E1
1.650622742E1,-4.763095093E0,-1.123084534E1,-2.533032532E0,1.245934250E1
1.651624842E1,-4.841382294E0,-1.236548584E1,-3.485651550E0,1.372931132E1
1.652626842E1,-5.360652466E0,-1.319042038E1,-4.155508575E0,1.483212851E1
1.653628942E1,-5.360652466E0,-1.424617493E1,-4.300107880E0,1.581711170E1
