Time (s),Acceleration x (m/s^2),Acceleration y (m/s^2),Acceleration z (m/s^2),Absolute acceleration (m/s^2)
0.000612167,-0.954265594,-0.317190399,9.925110626,9.975923692
0.010664792,-0.972078552,-0.309256897,10.15802628,10.20911722
0.020716792,-0.916993103,-0.300574951,10.17284546,10.21851292
0.030768792,-0.939147034,-0.349972229,10.10219238,10.15178648
0.040820792,-1.014290771,-0.368833008,10.02315674,10.0810959
0.050872792,-1.055604858,-0.328566742,9.874964905,9.936658875
0.060924792,-1.039887543,-0.277073822,9.698332214,9.757857539
0.070976792,-1.05425766,-0.231418762,9.586215363,9.646789043
0.081029792,-1.087638245,-0.228724365,9.521100769,9.585751491
0.091081792,-1.054107971,-0.213306427,9.550739136,9.61110094
0.101133792,-0.947529602,-0.206121368,9.566157074,9.615178601
0.111185792,-0.840352478,-0.233514404,9.523196411,9.563053443
0.121237792,-0.773740997,-0.275576935,9.465566254,9.501134789
0.131289792,-0.74530014,-0.241597595,9.52214859,9.554326531
0.141341792,-0.754281464,-0.237855377,9.644144897,9.676520372
0.151393792,-0.747246094,-0.264050903,9.811347198,9.843303991
0.161445792,-0.748144226,-0.287402344,9.792935486,9.82567582
0.171497792,-0.709973602,-0.236807556,9.621392212,9.650457421
0.181549792,-0.627644806,-0.199085999,9.47769104,9.500536863
0.191601792,-0.610580292,-0.220192108,9.425299988,9.447622596
0.201653792,-0.632734222,-0.232316895,9.462871857,9.48684708
0.211705792,-0.677191772,-0.234711914,9.535171509,9.56206955
0.221757792,-0.696651306,-0.239951019,9.544901276,9.573298277
0.231809792,-0.690065002,-0.252375183,9.513316956,9.54164988
0.241861792,-0.647254028,-0.277672577,9.476643219,9.502778885
0.251913792,-0.560883636,-0.304017792,9.430239716,9.45179551
0.261965792,-0.519868927,-0.349523163,9.401798859,9.422645696
0.272017792,-0.51133667,-0.379610596,9.544003143,9.565226887
0.282069792,-0.573158112,-0.417930908,9.767189026,9.792913659
0.292121792,-0.624351654,-0.423020325,9.934091949,9.962677554
0.302173792,-0.634680176,-0.436791687,10.1032402,10.13257462
0.312225792,-0.642164612,-0.449515228,10.18482056,10.21494048
0.322277792,-0.664767609,-0.425415344,10.16895355,10.19953482
0.332329792,-0.672551422,-0.409847717,10.1258432,10.15642659
0.342381792,-0.70323761,-0.398022308,10.09440857,10.12669982
0.352433792,-0.739911346,-0.409698029,10.06866211,10.10412183
0.362485792,-0.731828156,-0.416284332,10.04037094,10.07560984
0.372537792,-0.67629364,-0.406554565,9.989327087,10.02044487
0.382590792,-0.623154144,-0.38380188,9.896071014,9.923096618
0.392642792,-0.628842316,-0.366587677,9.741292877,9.768450036
0.402694792,-0.727337494,-0.375569,9.634864197,9.669574965
0.412746792,-0.813857574,-0.389340363,9.665251007,9.707266716
0.422798792,-0.832568665,-0.385747833,9.798773346,9.841642701
0.432850792,-0.825233917,-0.368383942,9.902657318,9.943809115
0.442902792,-0.834364929,-0.347577209,9.998009033,10.03878276
0.452954792,-0.817749481,-0.307011566,10.0063916,10.0444434
0.463006792,-0.832868042,-0.300574951,9.882898407,9.922484336
0.473058792,-0.843346252,-0.285157013,9.736353149,9.776968859
0.483110792,-0.836161194,-0.265098724,9.62049408,9.66040109
0.493162792,-0.833317108,-0.282612305,9.633666687,9.673769739
0.503214792,-0.794697418,-0.300275574,9.701775055,9.738898738
0.513266792,-0.750688934,-0.288899231,9.713301086,9.746548858
0.523318792,-0.714314575,-0.305065613,9.686656494,9.717747907
0.533370792,-0.62839325,-0.303269348,9.657616882,9.682789589
0.543422792,-0.5733078,-0.311502228,9.725126495,9.746989321
0.553474792,-0.603095856,-0.333656158,9.87436615,9.898391683
0.563526792,-0.598305817,-0.343685303,10.06162674,10.08525766
0.573578792,-0.545465698,-0.340392151,10.15518219,10.17551596
0.583630792,-0.515677643,-0.347726898,10.13033386,10.14940893
0.593682792,-0.416134644,-0.35925293,10.00489471,10.01998747
0.603734792,-0.254171448,-0.350271606,9.867779846,9.877265432
0.613786792,-0.125439148,-0.349074097,9.764494629,9.771537395
0.623838792,-0.042361908,-0.320483551,9.735904083,9.741269556
0.633890792,-0.087118835,-0.29952713,9.735005951,9.740002416
0.643942792,-0.164208527,-0.267044678,9.727521515,9.732571712
0.653994792,-0.230820007,-0.224533081,9.710007935,9.715345957
0.664046792,-0.230670319,-0.182320862,9.692793732,9.697252189
0.674098792,-0.232167206,-0.144000549,9.725575562,9.729411995
0.684151792,-0.234412537,-0.130528564,9.766290894,9.769975679
0.694203792,-0.268092499,-0.117805023,9.834249573,9.838608452
0.704255792,-0.278570709,-0.137863312,9.869127045,9.874020283
0.714307792,-0.21061203,-0.160166931,9.90011261,9.903647841
0.724359792,-0.125289459,-0.18022522,9.958491211,9.960909887
0.734411792,-0.087867279,-0.237406311,10.02974304,10.03293715
0.744463792,-0.017812958,-0.261356506,10.02225861,10.02568163
0.754515792,0.054486694,-0.266146545,9.860894165,9.864635651
0.764567792,0.101638641,-0.257314911,9.641151123,9.645119821
0.774619792,0.113613739,-0.245040436,9.430688782,9.434555835
0.784671792,0.082029419,-0.236059113,9.322763214,9.326112088
0.794723792,0.114811249,-0.258213043,9.242380371,9.246699439
0.804775792,0.178728333,-0.269439697,9.218879242,9.224547471
0.814827792,0.211659851,-0.282911682,9.258247375,9.26498696
0.824879792,0.206271057,-0.303868103,9.296717377,9.303968914
0.834931792,0.199535065,-0.33814682,9.249266052,9.257595801
0.844983792,0.188757477,-0.352516937,9.238638153,9.247287846
0.855035792,0.16495697,-0.350870361,9.252259827,9.260379728
0.865087792,0.232316895,-0.351169739,9.292077026,9.301612053
0.875139792,0.293240204,-0.353714447,9.356592865,9.367867087
0.885191792,0.321681061,-0.387843475,9.433682556,9.447130138
0.895243792,0.35805542,-0.398621063,9.546248474,9.561274097
0.905295792,0.316142578,-0.400716705,9.68710556,9.700542982
0.915347792,0.231867828,-0.388292542,9.923164673,9.933465202
0.925399792,-0.20941452,-0.33111145,10.1590741,10.16662558
0.935451792,-0.618064728,-0.106129303,10.23676254,10.25595314
0.945503792,-0.106728058,-0.035476227,10.02195923,10.02259029
0.955555792,0.114511871,-0.234861603,9.843081207,9.846548664
0.965607792,0.061821442,-0.289647675,9.821226654,9.825691358
0.975660792,0.089813232,-0.236957245,9.912387085,9.915625693
0.985711792,-0.052241364,-0.255818024,10.04575974,10.04915224
0.995764792,-0.200732574,-0.271086273,10.08961853,10.09525549
1.005816542,-0.23516098,-0.259560242,10.00220032,10.0083307
1.015868542,-0.213456116,-0.218096466,9.863438873,9.868158693
1.025920542,-0.159867554,-0.240250397,9.759854279,9.764119695
1.035972542,-0.154029694,-0.254021759,9.710007935,9.714551265
1.046024542,-0.277971954,-0.24099884,9.783505096,9.790419849
1.056076542,-0.391286316,-0.239651642,9.898615723,9.90924473
1.066128542,-0.420774994,-0.220192108,9.776769104,9.788296597
1.076180542,-0.25506958,-0.201780396,9.627978516,9.633470097
1.086232542,-0.05613327,-0.262703705,9.555828552,9.559603731
1.096284542,0.076191559,-0.344733124,9.575288086,9.581794613
1.106336542,0.186212769,-0.370778961,9.582772522,9.591750697
1.116388542,0.219293976,-0.409398651,9.652228088,9.663395065
1.126440542,0.229921875,-0.438288574,9.714797974,9.727397422
1.136492542,0.246687012,-0.466280365,9.719288635,9.733593552
1.146544542,0.253572693,-0.529748383,9.764494629,9.78214127
1.156596542,0.174686737,-0.575253754,9.843081207,9.861423832
1.166648542,0.014819183,-0.567919006,9.88723938,9.903547554
1.176700542,-0.089962921,-0.532592468,9.832902374,9.847726497
1.186752542,-0.102686462,-0.486188965,9.745035095,9.757696102
1.196804542,-0.019609222,-0.473615112,9.60178299,9.613476602
1.206856542,0.050145721,-0.441731415,9.642947388,9.653189916
1.216908542,0.059426422,-0.40954834,9.768236847,9.776999153
1.226960542,0.005388794,-0.369132385,9.836494904,9.843420124
1.237012542,0.032482452,-0.321082306,9.859846344,9.8651264
1.247064542,0.133971405,-0.277822266,9.87556366,9.880379099
1.257116542,0.121547241,-0.260608063,9.896370392,9.90054732
1.267168542,0.027393036,-0.240849152,9.864187317,9.867165252
1.277220542,0.005538483,-0.208366699,9.817334747,9.819547286
1.287272542,0.032332764,-0.188458099,9.801916809,9.803781668
1.297325542,0.07723938,-0.193697205,9.749376068,9.751605932
1.307377542,0.143252106,-0.186661835,9.74683136,9.749671039
1.317429542,0.216749268,-0.201031952,9.820178833,9.824627545
1.327481542,0.20941452,-0.196840668,9.954898682,9.959046563
1.337533542,0.135468292,-0.182320862,9.969418488,9.972005693
1.347585542,0.11466156,-0.185015259,9.891580353,9.893974924
1.357637542,0.139060822,-0.156873779,9.757608948,9.759860638
1.367689542,0.153880005,-0.172291718,9.715546417,9.718292323
1.377741542,0.144898682,-0.215851135,9.731114044,9.734586169
1.387793542,0.137863312,-0.263452148,9.747130737,9.751665034
1.397845542,0.146395569,-0.260009308,9.73740097,9.74197178
1.407897542,0.141455841,-0.294138336,9.722132721,9.727609766
1.417949542,0.145946503,-0.318836975,9.75147171,9.757774229
1.428001542,0.173938293,-0.31823822,9.818981323,9.825676787
1.438053542,0.175135803,-0.321231995,9.859996033,9.866781862
1.448105542,0.141755219,-0.325423279,9.889484711,9.895852803
1.458157542,0.080831909,-0.338895264,9.910441132,9.916563277
1.468209542,0.041463776,-0.323028259,9.943672028,9.949003965
1.478261542,-0.02454895,-0.316591644,9.933044128,9.938118463
1.488313542,-0.056432648,-0.325722656,9.838291168,9.843843406
1.498365542,-0.097597046,-0.331410828,9.711504822,9.717648081
1.508417542,-0.17318985,-0.349373474,9.624685364,9.632581425
1.518469542,-0.174986115,-0.350271606,9.614506531,9.622476093
1.528521542,-0.160915375,-0.352816315,9.682315521,9.690077758
1.538573542,-0.135468292,-0.371527405,9.707463226,9.715514735
1.548625542,-0.111218719,-0.373623047,9.70581665,9.713641986
1.558677542,-0.07604187,-0.379460907,9.68007019,9.687803251
1.568729542,-0.063617706,-0.388741608,9.714348907,9.722332125
1.578781542,-0.044307861,-0.38140686,9.790540466,9.798067003
1.588833542,-0.021854553,-0.402962036,9.850865021,9.859127633
1.598886542,-0.048050079,-0.41418869,9.906399536,9.915170843
1.608938542,-0.083376617,-0.3954776,9.885592804,9.89385159
1.618990542,-0.084125061,-0.373323669,9.833201752,9.840645521
1.629042542,-0.073347473,-0.362546082,9.767039337,9.774040972
1.639094542,-0.115110626,-0.357606354,9.715546417,9.722806948
1.649146542,-0.139060822,-0.355810089,9.707463226,9.71497715
1.659198542,-0.148940277,-0.354462891,9.713600464,9.721206773
1.669250542,-0.181871796,-0.340691528,9.702673187,9.710356072
1.679302542,-0.171692963,-0.332907715,9.711504822,9.718725838
1.689354542,-0.171692963,-0.366887054,9.718390503,9.726828802
1.699406542,-0.14280304,-0.366138611,9.787846069,9.795732789
1.709458542,-0.07140152,-0.365390167,9.823172607,9.830225238
1.719510542,-0.052241364,-0.3662883,9.877359924,9.884287296
1.729562542,-0.034129028,-0.358504486,9.965975647,9.972480176
1.739614542,-0.07140152,-0.345481567,9.970466309,9.976705574
1.749666542,-0.115559692,-0.325123901,9.920470276,9.926469165
1.759718542,-0.107027435,-0.312550049,9.910441132,9.915946038
1.769770542,-0.080981598,-0.284707947,9.904902649,9.909324554
1.779822542,-0.103584595,-0.267194366,9.892777863,9.896927626
1.789874542,-0.116158447,-0.275876312,9.838141479,9.842694158
1.799926542,-0.084424438,-0.261506195,9.728569336,9.732449553
1.809978542,-0.060623932,-0.278720398,9.656419373,9.660631212
1.820030542,-0.038020935,-0.300574951,9.644893341,9.649650691
1.830082542,-0.01751358,-0.30416748,9.661209412,9.666012201
1.840134542,0.010328522,-0.322279816,9.634415131,9.639809431
1.850186542,0.023650818,-0.3264711,9.628876648,9.634438657
1.860238542,0.039667511,-0.342038727,9.626032562,9.632189102
1.870290542,0.011526031,-0.354612579,9.668544159,9.675051891
1.880342542,-0.014669495,-0.348026276,9.746981049,9.753203425
1.890394542,-0.021704865,-0.353714447,9.79128891,9.79769991
1.900446542,0.013921051,-0.369282074,9.786199493,9.793174336
1.910499542,0.06556366,-0.389939117,9.785301361,9.793287182
1.920551542,0.070802765,-0.389939117,9.787247314,9.795268018
1.930603542,0.023950195,-0.373922424,9.786947937,9.7941177
1.940655542,-0.011076965,-0.357606354,9.782008209,9.788548902
1.950707542,-0.007334747,-0.364641724,9.801318054,9.808101396
1.960759542,0.025596771,-0.376167755,9.821376343,9.828610819
1.970811542,0.039966888,-0.387394409,9.871072998,9.87875265
1.980863542,0.024399261,-0.37796402,9.930649109,9.93786918
1.990915542,-0.010178833,-0.375718689,9.922865295,9.929981058
2.000967542,-0.045505371,-0.363593903,9.874515839,9.881312378
2.011020583,-0.057630157,-0.359851685,9.794282684,9.801060543
2.021072583,-0.035625916,-0.3556604,9.736203461,9.742762511
2.031124583,-0.004340973,-0.341290283,9.716743927,9.722736777
2.041176583,0.00239502,-0.329015808,9.752070465,9.757619356
2.051228583,-0.008382568,-0.319136353,9.741741943,9.746971549
2.061280583,0.003442841,-0.319735107,9.751771088,9.757011927
2.071332583,-0.011076965,-0.322878571,9.768386536,9.773727476
2.081384583,-0.015717316,-0.329614563,9.741592255,9.747179718
2.091436583,0.017064514,-0.314496002,9.767039337,9.772116268
2.101488583,-0.011526031,-0.323776703,9.813143463,9.81849015
2.111540583,-0.010029144,-0.337697754,9.842033386,9.847830296
2.121592583,0.001496887,-0.310304718,9.819131012,9.824033036
2.131644583,-0.018112335,-0.319286041,9.779912567,9.785139828
2.141696583,-0.065264282,-0.342038727,9.785600739,9.791794102
2.151748583,-0.085921326,-0.364192657,9.76673996,9.773905474
2.161800583,-0.086370392,-0.328566742,9.701026611,9.706973435
2.171852583,-0.077389069,-0.33814682,9.676777039,9.682992626
2.181904583,-0.080382843,-0.335602112,9.655670929,9.661835812
2.191956583,-0.082029419,-0.337997131,9.673034821,9.679285796
2.202008583,-0.086370392,-0.351319427,9.715546417,9.722279947
2.212060583,-0.07020401,-0.351918182,9.749525757,9.756127689
2.222112583,-0.030087433,-0.348625031,9.736502838,9.742788727
2.232164583,-0.024249573,-0.353714447,9.795330505,9.801744827
2.242217583,-0.028740234,-0.36509079,9.824669495,9.831492662
2.252269583,-0.035625916,-0.371078339,9.867779846,9.874818856
2.262321583,-0.054337006,-0.377814331,9.873468018,9.880843429
2.272373583,-0.06556366,-0.367934875,9.804461517,9.811581947
2.282425583,-0.073197784,-0.346679077,9.750573578,9.757009244
2.292477583,-0.073646851,-0.33814682,9.684261475,9.690443098
2.302529583,-0.051941986,-0.3662883,9.695488129,9.702543746
2.312581583,-0.055085449,-0.380658417,9.753717041,9.761297627
2.322633583,-0.074694672,-0.391286316,9.779912567,9.788021971
2.332685583,-0.093705139,-0.381855927,9.814939728,9.822812045
2.342737583,-0.089064789,-0.382304993,9.844877472,9.852700243
2.352789583,-0.067509613,-0.386196899,9.809850311,9.817681433
2.362841583,-0.044607239,-0.384550323,9.782457275,9.790114356
2.372893583,-0.024848328,-0.388142853,9.792037354,9.799758561
2.382945583,-0.018112335,-0.378113708,9.757608948,9.764949074
2.392997583,-0.029338989,-0.383203125,9.730215912,9.737802992
2.403049583,-0.040565643,-0.39083725,9.724827118,9.73276229
2.413101583,-0.007783813,-0.384250946,9.761051788,9.768615121
2.423153583,0.005538483,-0.394130402,9.774523773,9.782468218
2.433205583,-0.025147705,-0.428409119,9.742490387,9.751937537
2.443257583,-0.046253815,-0.453706512,9.766889648,9.77753151
2.453309583,-0.063617706,-0.428558807,9.782906342,9.79249541
2.463361583,-0.039966888,-0.425565033,9.789043579,9.798371147
2.473413583,-0.075143738,-0.437839508,9.828112335,9.838147289
2.483465583,-0.044158173,-0.433348846,9.854607239,9.864229569
2.493517583,-0.008981323,-0.436342621,9.837243347,9.846919936
2.503569583,-0.018411713,-0.453407135,9.795180817,9.805686322
2.513621583,-0.059127045,-0.446222076,9.795031128,9.80536817
2.523673583,-0.040266266,-0.39083725,9.827363892,9.835215106
2.533725583,-0.04565506,-0.354762268,9.878856812,9.885330169
2.543777583,-0.054786072,-0.365240479,9.888885956,9.895780291
2.553829583,-0.035925293,-0.37796402,9.821076965,9.828412903
2.563882583,-0.005538483,-0.379460907,9.768985291,9.776353863
2.573934583,-0.004340973,-0.381556549,9.73859848,9.746071239
2.583986583,-0.022752686,-0.391735382,9.664352875,9.672315689
2.594038583,-0.010777588,-0.396824799,9.641749878,9.649918486
2.604090583,0.014370117,-0.411045227,9.675280151,9.684018313
2.614142583,0.019010468,-0.427810364,9.748927002,9.758327766
2.624194583,0.017962646,-0.438587952,9.755812683,9.765682933
2.634246583,0.005987549,-0.431851959,9.739945679,9.749516593
2.644298583,0.048948212,-0.443527679,9.738299103,9.74851692
2.654350583,0.062869263,-0.449515228,9.765991516,9.776533474
2.664402583,0.045056305,-0.478405151,9.820927277,9.832675838
2.674454583,0.013771362,-0.47151947,9.84278183,9.854079075
2.684506583,-0.006436615,-0.480500793,9.838291168,9.850020079
2.694558583,-0.017363892,-0.493374023,9.835147705,9.847530138
2.704610583,-0.033230896,-0.479303284,9.840835876,9.852557367
2.714662583,-0.019609222,-0.48559021,9.802665253,9.814704704
2.724714583,-0.003592529,-0.486338654,9.770482178,9.782579424
2.734766583,0.01526825,-0.497864685,9.765243073,9.777938158
2.744818583,0.017962646,-0.491727448,9.737251282,9.749675947
2.754870583,-0.000299377,-0.483644257,9.694589996,9.70664654
2.764922583,-0.002095642,-0.469573517,9.736053772,9.747371273
2.774974583,0.010029144,-0.47032196,9.757010193,9.768344345
2.785026583,0.032931519,-0.451311493,9.787546692,9.798001674
2.795078583,0.045804749,-0.424666901,9.767787781,9.777122183
2.805130583,-0.008083191,-0.403560791,9.769434357,9.777769393
2.815182583,-0.027542725,-0.392633514,9.769733734,9.777659071
2.825234583,-0.022902374,-0.385897522,9.770033112,9.777678069
2.835286583,-0.021255798,-0.383352814,9.774374084,9.781911875
2.845338583,-0.035625916,-0.375718689,9.832453308,9.839693684
2.855390583,-0.068707123,-0.380658417,9.818831635,9.82644779
2.865442583,-0.097896423,-0.390687561,9.782457275,9.790745162
2.875494583,-0.078885956,-0.418829041,9.824220428,9.833460621
2.885546583,-0.059576111,-0.439037018,9.896520081,9.906432886
2.895598583,-0.041613464,-0.438887329,9.901759186,9.91156843
2.905651583,-0.040865021,-0.442180481,9.783654785,9.793727303
2.915703583,-0.033829651,-0.463885345,9.712552643,9.723683093
2.925755583,-0.017214203,-0.464933167,9.680519257,9.691692951
2.935807583,-0.008083191,-0.459244995,9.700128479,9.710997056
2.945859583,-0.016465759,-0.47855484,9.703122253,9.714930124
2.955911583,-0.003143463,-0.488733673,9.723030853,9.73530685
2.965963583,0.012274475,-0.478105774,9.743687897,9.755418475
2.976015583,-0.053438873,-0.458496552,9.779313812,9.79020191
2.986067583,-0.044158173,-0.45864624,9.803264008,9.814086382
2.996119583,-0.030087433,-0.461190948,9.806108093,9.816993342
3.006170833,-0.015417938,-0.451760559,9.755213928,9.765680934
3.016222833,0.003742218,-0.455053711,9.756112061,9.766719532
3.026274833,0.001796265,-0.443677368,9.768087158,9.778158291
3.036326833,-0.016316071,-0.437091064,9.795330505,9.805091255
3.046378833,-0.015867004,-0.437989197,9.82167572,9.83144955
3.056430833,-0.003592529,-0.437240753,9.830956421,9.840675614
3.066482833,0.00583786,-0.443377991,9.862391052,9.872354096
3.076534833,-0.003592529,-0.447419586,9.821975098,9.832161106
3.086586833,-0.011975098,-0.442928925,9.743089142,9.753159255
3.096638833,-0.028740234,-0.452059937,9.745933228,9.756454205
3.106690833,-0.049247589,-0.452209625,9.755363617,9.765963248
3.116742833,-0.060923309,-0.446072388,9.727970581,9.73838302
3.126794833,-0.055534515,-0.441731415,9.699230347,9.709442829
3.136846833,-0.057181091,-0.43649231,9.685309296,9.69530873
3.146898833,-0.045505371,-0.426463165,9.724827118,9.734279842
3.156950833,-0.050894165,-0.427660675,9.808353424,9.817804274
3.167002833,-0.070054321,-0.429606628,9.897118835,9.906686162
3.177054833,-0.082777863,-0.413739624,9.906100159,9.915082098
3.187106833,-0.065264282,-0.402213593,9.849667511,9.858092375
3.197158833,-0.017064514,-0.410296783,9.785900116,9.794512531
3.207210833,0.047750702,-0.437689819,9.782906342,9.792809045
3.217262833,0.062869263,-0.451161804,9.80880249,9.819374003
3.227314833,0.006885681,-0.446072388,9.801318054,9.811465924
3.237367833,-0.054486694,-0.463136902,9.79712677,9.808218877
3.247419833,-0.073646851,-0.454604645,9.811646576,9.822448665
3.257471833,-0.042810974,-0.437240753,9.797276459,9.807121813
3.267523833,-0.044307861,-0.460292816,9.755213928,9.766167695
3.277575833,-0.057630157,-0.464035034,9.718540192,9.729782793
3.287627833,-0.039218445,-0.453257446,9.732161865,9.742789897
3.297679833,-0.024249573,-0.449664917,9.751621399,9.762013444
3.307731833,-0.05852829,-0.438887329,9.773925018,9.783948994
3.317783833,-0.116158447,-0.428109741,9.779912567,9.789967342
3.327835833,-0.135168915,-0.415236511,9.757908325,9.767674589
3.337887833,-0.10178833,-0.397722931,9.773326263,9.781945136
3.347939833,-0.064066772,-0.393232269,9.839039612,9.847102957
3.357991833,-0.05493576,-0.403560791,9.86733078,9.87573268
3.368043833,-0.03861969,-0.412093048,9.870474243,9.879148442
3.378095833,-0.057630157,-0.406853943,9.793234863,9.801851889
3.388147833,-0.069455566,-0.408500519,9.715845795,9.724677694
3.398199833,-0.070353699,-0.398621063,9.68366272,9.69211907
3.408251833,-0.066162415,-0.419128418,9.688901825,9.698188731
3.418303833,-0.048948212,-0.438138885,9.726324005,9.736310403
3.428355833,-0.046104126,-0.44577301,9.710307312,9.720643356
3.438407833,-0.055684204,-0.437390442,9.679471436,9.689508677
3.448459833,-0.055684204,-0.440683594,9.677675171,9.687863514
3.458511833,-0.060923309,-0.443976746,9.693542175,9.70389545
3.468563833,-0.069305878,-0.464783478,9.748477936,9.759797593
3.478615833,-0.05852829,-0.478405151,9.81583786,9.827663504
3.488667833,-0.051193542,-0.476459198,9.837243347,9.848908103
3.498719833,-0.057181091,-0.482895813,9.820927277,9.832958386
3.508771833,-0.080532532,-0.476010132,9.807305603,9.81918094
3.518823833,-0.094154205,-0.479153595,9.797725525,9.80988678
3.528875833,-0.078736267,-0.454155579,9.806706848,9.817533086
3.538927833,-0.082628174,-0.432151337,9.786199493,9.796085071
3.548979833,-0.109272766,-0.451161804,9.765692139,9.776718798
3.559031833,-0.114212494,-0.429906006,9.756112061,9.766247294
3.569083833,-0.094004517,-0.418379974,9.762249298,9.771662602
3.579135833,-0.047900391,-0.429756317,9.800120544,9.809655836
3.589187833,-0.040865021,-0.418679352,9.839189301,9.848177925
3.599240833,-0.034727783,-0.407003632,9.82407074,9.832559376
3.609292833,-0.025596771,-0.378712463,9.77961319,9.786976676
3.619344833,-0.020657043,-0.385298767,9.783505096,9.79111096
3.629396833,-0.035176849,-0.393381958,9.787097626,9.795063385
3.639448833,-0.068108368,-0.402962036,9.817933502,9.826435539
3.649500833,-0.076341248,-0.414787445,9.807155914,9.816220441
3.659552833,-0.080233154,-0.399070129,9.755812683,9.764301073
3.669604833,-0.06316864,-0.398471375,9.718390503,9.726761212
3.679656833,-0.045804749,-0.416883087,9.700727234,9.709788795
3.689708833,-0.057929535,-0.421373749,9.713600464,9.722908291
3.699760833,-0.088316345,-0.426313477,9.812245331,9.821899072
3.709812833,-0.081730042,-0.426014099,9.823621674,9.833194323
3.719864833,-0.045804749,-0.428858185,9.720186768,9.729750676
3.729916833,-0.011226654,-0.426313477,9.669891357,9.679290681
3.739968833,-0.026045837,-0.428409119,9.689949646,9.69945034
3.750020833,-0.03861969,-0.426762543,9.723330231,9.732767773
3.760072833,-0.061671753,-0.449215851,9.786199493,9.796698363
3.770124833,-0.072000275,-0.46104126,9.80760498,9.818699432
3.780176833,-0.057630157,-0.445174255,9.797426147,9.807704138
3.790228833,-0.021405487,-0.450712738,9.796078949,9.806465364
3.800280833,-0.013921051,-0.443078613,9.761650543,9.771710893
3.810332833,-0.039517822,-0.425265656,9.762997742,9.772335312
3.820384833,-0.075592804,-0.430055695,9.758806458,9.768570297
3.830436833,-0.101938019,-0.445323944,9.740843811,9.751550796
3.840488833,-0.042212219,-0.43649231,9.900711365,9.910418404
3.850540833,-0.083675995,-0.417481842,9.870623932,9.879803114
3.860592833,-0.107476501,-0.418829041,9.731712799,9.741314232
3.870644833,-0.083226929,-0.442779236,9.771829376,9.782209849
3.880696833,-0.068856812,-0.4644841,9.781559143,9.792823189
3.890748833,-0.05149292,-0.42825943,9.740394745,9.749940894
3.900800833,-0.069605255,-0.425565033,9.752519531,9.762048335
3.910852833,-0.074994049,-0.442479858,9.772278442,9.782578315
3.920904833,-0.081131287,-0.433648224,9.792636108,9.802568797
3.930956833,-0.082927551,-0.405656433,9.789492645,9.79824476
3.941008833,-0.087268524,-0.397722931,9.824519806,9.832954222
3.951060833,-0.07843689,-0.430953827,9.837692413,9.847439544
3.961112833,-0.034877472,-0.437091064,9.791588287,9.801401238
3.971165833,-0.003891907,-0.437839508,9.742939453,9.752773337
3.981217833,-0.029937744,-0.441581726,9.728719025,9.738781472
3.991269833,-0.084424438,-0.434696045,9.713450775,9.723539176
4.001321833,-0.124541016,-0.43993515,9.71524704,9.726000126
4.011373333,-0.110919342,-0.437091064,9.749376068,9.759799456
4.021425333,-0.089214478,-0.454305267,9.783654785,9.794603282
4.031477333,-0.071251831,-0.452509003,9.800419922,9.811119807
4.041529333,-0.041314087,-0.458197174,9.812095642,9.822874956
4.051581333,-0.034129028,-0.456400909,9.779313812,9.790017631
4.061633333,-0.042810974,-0.455502777,9.781708832,9.792402322
4.071685333,-0.075592804,-0.44697052,9.817484436,9.827944728
4.081737333,-0.117505646,-0.427960052,9.791438599,9.801491071
4.091789333,-0.119750977,-0.400866394,9.811047821,9.819964028
4.101841333,-0.108075256,-0.378263397,9.871821442,9.87965698
4.111893333,-0.098495178,-0.382005615,9.904303894,9.912157445
4.121945333,-0.100441132,-0.378862152,9.914482727,9.922227204
4.131997333,-0.094603271,-0.390687561,9.880653076,9.888826612
4.142049333,-0.099393311,-0.407303009,9.798623657,9.807588916
4.152101333,-0.088316345,-0.390687561,9.713301086,9.721556179
4.162153333,-0.063767395,-0.403411102,9.641001434,9.649648463
4.172205333,-0.048798523,-0.417930908,9.582173767,9.591407699
4.182257333,-0.02574646,-0.454155579,9.595795441,9.606571205
4.192309333,-0.035775604,-0.464184723,9.640252991,9.651488231
4.202361333,-0.041164398,-0.461490326,9.674831085,9.68591887
4.212413333,-0.023650818,-0.469723206,9.738897858,9.750247727
4.222465333,-0.023650818,-0.486188965,9.802665253,9.814743253
4.232517333,-0.00823288,-0.49262558,9.817334747,9.829690193
4.242569333,-0.015567627,-0.492924957,9.808952179,9.821342078
4.252621333,-0.027991791,-0.477057953,9.80535965,9.816997794
4.262673333,-0.059576111,-0.482446747,9.813293152,9.825325779
4.272725333,-0.07604187,-0.497116241,9.837393036,9.850239016
4.282777333,-0.083975372,-0.495469666,9.865384827,9.878175936
4.292829333,-0.113014984,-0.476608887,9.851314087,9.863484053
4.302881333,-0.110919342,-0.462538147,9.807904358,9.819431375
4.312933333,-0.1088237,-0.445323944,9.73859848,9.749382358
4.322985333,-0.124241638,-0.438587952,9.708660736,9.719356391
4.333037333,-0.100740509,-0.429606628,9.694440308,9.704477492
4.343089333,-0.080382843,-0.423469391,9.710906067,9.720467292
4.353141333,-0.070054321,-0.42002655,9.727820892,9.737136603
4.363194333,-0.059127045,-0.425714722,9.755213928,9.764677558
4.373246333,-0.038320313,-0.408949585,9.782906342,9.791525147
4.383298333,-0.034727783,-0.407452698,9.783654785,9.792197132
4.393350333,-0.041014709,-0.407752075,9.784103851,9.792682581
4.403402333,-0.044307861,-0.404458923,9.809251556,9.817686403
4.413454333,-0.051941986,-0.407452698,9.817783813,9.826372407
4.423506333,-0.07020401,-0.399968262,9.859696655,9.868055601
4.433558333,-0.066012726,-0.418080597,9.880952454,9.890013673
4.443610333,-0.060474243,-0.42706192,9.870923309,9.880342403
4.453662333,-0.089364166,-0.422122192,9.827363892,9.83683151
4.463714333,-0.085771637,-0.424517212,9.784852295,9.794432402
4.473766333,-0.076790314,-0.432600403,9.751022644,9.760916067
4.483818333,-0.050445099,-0.442779236,9.724378052,9.734584051
4.493870333,-0.039667511,-0.467328186,9.73156311,9.742858396
4.503922333,-0.045056305,-0.476309509,9.732311554,9.744064296
4.513974333,-0.050145721,-0.472118225,9.731413422,9.742988114
4.524026333,-0.041613464,-0.475710754,9.737999725,9.749701075
4.534078333,-0.089364166,-0.474064178,9.750872955,9.762799096
4.544130333,-0.104333038,-0.471669159,9.731712799,9.743694945
4.554182333,-0.082328796,-0.455353088,9.738748169,9.7497354
4.564234333,-0.085771637,-0.460741882,9.755513306,9.766764035
4.574286333,-0.055833893,-0.455502777,9.771529999,9.782300278
4.584338333,-0.008831635,-0.476159821,9.849667511,9.861174182
4.594390333,0.199085999,-0.572858734,9.976004791,9.994422142
4.604442333,0.291893005,-0.590671692,9.971364441,9.993107794
4.614494333,0.281115417,-0.537232819,9.842033386,9.860692986
4.624546333,0.157322845,-0.480351105,9.601034546,9.614330555
4.634598333,0.128283234,-0.47032196,9.412277069,9.424893578
4.644650333,0.110769653,-0.520317993,9.356143799,9.371255386
4.654702333,0.063767395,-0.5640271,9.367220764,9.384402895
4.664754333,-0.055983582,-0.595012665,9.50104248,9.519820505
4.674806333,-0.411344604,-0.602796478,9.587113495,9.614848576
4.684858333,-0.598605194,-0.528101807,9.775721283,9.808259086
4.694910333,-0.693358154,-0.52540741,10.11476624,10.15210788
4.704962333,-0.707578583,-0.536035309,10.38899597,10.42685181
4.715014333,-0.49846344,-0.532592468,10.69945038,10.72428827
4.725066333,-0.219144287,-0.533640289,10.90676926,10.92201501
4.735118333,0.073646851,-0.573607178,10.91994186,10.93524482
4.745170333,0.289348297,-0.607586517,10.74510544,10.76615877
4.755222333,0.412093048,-0.660875702,10.35112473,10.38038344
4.765274333,0.355211334,-0.746647339,9.868827667,9.903404307
4.775327333,0.306263123,-0.714164886,9.428293762,9.460261722
4.785379333,0.290994873,-0.656235352,9.088350677,9.116657331
4.795431333,0.205223236,-0.606987762,8.892557831,8.915611897
4.805483333,0.121996307,-0.544866943,8.763077087,8.780847517
4.815535333,0.025147705,-0.489332428,8.664881287,8.678723774
4.825587333,-0.030237122,-0.453407135,8.720565491,8.732396853
4.835639333,-0.029338989,-0.443827057,8.993448029,9.004440609
4.845691333,-0.00119751,-0.446072388,9.42275528,9.43330796
4.855743333,0.038170624,-0.446072388,9.798623657,9.808846168
4.865795333,0.090262299,-0.456849976,10.05533981,10.06611732
4.875847333,0.149389343,-0.486338654,10.25622208,10.26883312
4.885899333,0.207318878,-0.494571533,10.34004776,10.35394465
4.895951333,0.216000824,-0.473465424,10.28092072,10.29408357
4.906003333,0.170495453,-0.45400589,10.1590741,10.17064288
4.916055333,0.114511871,-0.433199158,9.984237671,9.994287186
4.926107333,0.083226929,-0.393681335,9.809850311,9.81809935
4.936159333,0.033230896,-0.37092865,9.676777039,9.683940634
4.946211333,-0.004490662,-0.371826782,9.598938904,9.606138839
4.956263333,-0.021405487,-0.407003632,9.595046997,9.603699132
4.966315333,-0.025297394,-0.441432037,9.565708008,9.575921464
4.976367333,0.01287323,-0.481997681,9.564959564,9.577104936
4.986419333,0.020058289,-0.49262558,9.572743378,9.585431554
4.996471333,0.031734009,-0.518222351,9.524992676,9.539132399
5.006523333,0.0398172,-0.538580017,9.505383453,9.520712601
5.016574958,0.034129028,-0.571661224,9.585466919,9.602558899
5.026626958,0.007933502,-0.573756866,9.69294342,9.709913081
5.036678958,-0.048050079,-0.593366089,9.796827393,9.814897813
5.046730958,-0.045355682,-0.604143677,9.880802765,9.89935907
5.056782958,-0.019459534,-0.595761108,9.913883972,9.931787623
5.066834958,0.00583786,-0.570014648,9.924062805,9.940421185
5.076886958,0.040415955,-0.549656982,9.900411987,9.915740707
5.086938958,0.055983582,-0.55818924,9.948013,9.963818146
5.096990958,0.071700897,-0.537981262,9.969568176,9.984330447
5.107042958,0.105680237,-0.539328461,9.98902771,10.00413505
5.117094958,0.137414246,-0.551752625,10.06267456,10.07872675
5.127146958,0.164507904,-0.552052002,10.11865814,10.13504153
5.137198958,0.18726059,-0.50894165,10.11686188,10.131386
5.147250958,0.112715607,-0.561931458,10.12045441,10.13666953
5.157302958,0.060474243,-0.528101807,10.26086243,10.27462147
5.167354958,0.048648834,-0.451760559,10.29963181,10.30964935
5.177406958,0.064216461,-0.377215576,10.2837648,10.2908811
5.187458958,-0.019459534,-0.392783203,10.31549881,10.32299244
5.197511958,-0.129480743,-0.450263672,10.17703674,10.18781525
5.207563958,-0.070353699,-0.432450714,10.00384689,10.01343677
5.217615958,0.144898682,-0.340841217,9.80416214,9.811155061
5.227667958,0.36269577,-0.279468842,9.639055481,9.649924436
5.237719958,0.484243011,-0.281863861,9.532626801,9.549079131
5.247771958,0.400866394,-0.370329895,9.327253876,9.343206246
5.257823958,0.323627014,-0.415086823,9.288035431,9.302936831
5.267875958,0.216000824,-0.45161087,9.376202087,9.389556662
5.277927958,0.133073273,-0.481997681,9.424252167,9.437508101
5.287979958,0.014819183,-0.572559357,9.462572479,9.479890387
5.298031958,-0.114960938,-0.63887146,9.479187927,9.501388136
5.308083958,-0.196391602,-0.670006714,9.388326874,9.414253032
5.318135958,-0.27617569,-0.685125275,9.273964691,9.303337613
5.328187958,-0.356708221,-0.68916687,9.26707901,9.299513165
5.338239958,-0.401465149,-0.711769867,9.289682007,9.32555534
5.348291958,-0.434995422,-0.757125549,9.378746796,9.419307383
5.358343958,-0.453257446,-0.815055084,9.567953339,9.613297467
5.368395958,-0.488434296,-0.872685242,9.799821167,9.850717867
5.378447958,-0.506546631,-0.928968201,9.953551483,10.00963329
5.388499958,-0.492176514,-0.955612793,10.08378067,10.14091052
5.398551958,-0.499810638,-1.006806335,10.19050873,10.25231378
5.408603958,-0.467477875,-0.996178436,10.43704605,10.49489577
5.418655958,-0.407452698,-0.982107697,10.71187454,10.76451622
5.428707958,-0.471220093,-1.006357269,10.95362183,11.00984262
5.438759958,-0.609981537,-1.045126648,11.1185788,11.1842372
5.448811958,-0.814905396,-1.024319916,11.17531082,11.25170538
5.458863958,-1.044527893,-0.968935089,11.14761841,11.2382948
5.468915958,-1.357976074,-0.923280029,11.04014191,11.16159838
5.478967958,-1.608704681,-0.891546021,11.1292067,11.28016076
5.489019958,-1.621278534,-0.839304657,11.66748734,11.80945541
5.499071958,-1.595831451,-0.949325867,12.56292526,12.69940899
5.509123958,-1.09287735,-1.017434235,13.43590988,13.51862521
5.519175958,-0.578247528,-1.344803467,13.97389114,14.05035588
5.529227958,-0.457299042,-1.971250763,14.67817657,14.81701115
5.539279958,-0.557889862,-2.276466064,15.37333099,15.55097568
5.549331958,-0.116008759,-1.5925383,15.77569427,15.85629736
5.559383958,0.490529938,-0.605939941,16.02492599,16.04387846
5.569435958,0.620759125,0.003592529,16.3539418,16.36571927
5.579487958,0.641116791,0.174237671,16.99341202,17.00639414
5.589539958,0.82253952,0.095651093,17.77478714,17.79406582
5.599591958,1.056652679,0.036673737,18.18882614,18.21952953
5.609643958,1.411714325,-0.02335144,18.18717957,18.24190185
5.619695958,1.878294067,-0.025147705,18.13598602,18.2330088
5.629747958,2.302212524,0.234861603,18.02716232,18.17509075
5.639799958,2.440225525,0.50549881,17.45310608,17.63012029
5.649852958,2.499502258,0.572259979,16.94865509,17.14152567
5.659903958,2.320025482,0.302969971,16.92230988,17.08329244
5.669956958,1.881587219,-0.272882538,17.23321335,17.33777603
5.680008958,1.596280518,-1.025966492,17.52795044,17.63036487
5.690060958,1.338965607,-1.905088348,17.6691069,17.82188344
5.700112958,1.220262451,-2.279908905,17.54232056,17.73189318
5.710164958,1.35617981,-2.019450531,17.20237747,17.37351993
5.720216958,1.07880661,-1.856140137,15.95232697,16.09614288
5.730268958,0.448766785,-1.830094299,13.82195709,13.94980769
5.740320958,0.194595337,-1.575024719,11.84217407,11.94803988
5.750372958,0.01047821,-1.102307739,10.43884232,10.49688625
5.760424958,-0.221838684,-0.632883911,9.369316406,9.393287197
5.770476958,-0.256117401,-0.308658142,8.64108078,8.650383981
5.780528958,-0.172441406,0.041912842,8.382119293,8.383997649
5.790580958,-0.145796814,0.048648834,8.409811707,8.411216105
5.800632958,0.057181091,-0.62719574,8.220904541,8.244993368
5.810684958,0.453407135,-1.621128845,7.842341766,8.020970087
5.820736958,0.320483551,-1.874701538,7.98110321,8.204585548
5.830788958,0.359851685,-1.584754486,7.946674805,8.111139283
5.840840958,0.56627243,-0.994681549,7.366780701,7.455166916
5.850892958,0.595761108,-0.622106323,6.297703857,6.35633711
5.860944958,0.315094757,-0.409248962,5.521867218,5.545970338
5.870996958,-0.103883972,-0.277672577,5.048401794,5.057099427
5.881048958,-0.692609711,-0.581241302,4.27436142,4.368948982
5.891100958,-1.119521942,-0.694256287,3.767814789,3.991459564
5.901152958,-1.272503815,-0.749042358,3.548520813,3.843478941
5.911204958,-1.278641052,-0.913699951,3.457510071,3.797913431
5.921256958,-1.218615875,-1.066831512,3.558699646,3.909922927
5.931308958,-1.152303772,-1.10455307,3.698808289,4.028526309
5.941360958,-0.993034973,-0.874331818,3.522924042,3.763185936
5.951412958,-0.87403244,-0.573607178,3.053350525,3.227368484
5.961464958,-0.833317108,-0.200433197,2.627186737,2.763458163
5.971516958,-1.000220032,0.138312378,2.402054901,2.605655037
5.981568958,-1.18763031,0.343685303,2.177671509,2.50416424
5.991620958,-1.309177551,0.441731415,1.922751617,2.36770908
6.001672958,-1.317410431,0.437839508,1.738933868,2.225121272
6.011726208,-1.226549377,0.358205109,1.767823792,2.181269179
6.021778208,-0.919388123,0.213605804,2.053130493,2.259700596
6.031830208,-0.459095306,0.131875763,2.394121399,2.441306411
6.041882208,-0.029039612,0.106129303,2.59171051,2.594045122
6.051934208,0.323177948,0.103584595,2.652184753,2.673809589
6.061986208,0.464184723,0.169148254,2.642155609,2.687948075
6.072038208,0.466729431,0.259859619,2.614912262,2.668919167
6.082090208,0.396525421,0.315543823,2.509681091,2.560331911
6.092142208,0.252225494,0.312999115,2.369123383,2.402983926
6.102194208,0.010029144,0.223934326,2.305655365,2.316526242
6.112246208,-0.149239655,0.138462067,2.29921875,2.308213829
6.122298208,-0.051043854,0.160765686,2.334545288,2.340630851
6.132351208,0.069455566,0.25626709,2.366728363,2.381575118
6.142403208,0.177979889,0.375119934,2.552791443,2.586336397
6.152455208,0.386795654,0.505349121,2.733765106,2.806859503
6.162507208,0.5533992,0.59905426,2.866539001,2.980295712
6.172559208,0.588875427,0.662821655,2.886297913,3.019407633
6.182611208,0.444874878,0.6821315,2.90186554,3.013974229
6.192663208,0.141006775,0.796343994,3.050506439,3.15588913
6.202715208,0.0199086,1.001716919,3.379821625,3.52519891
6.212767208,0.293838959,1.419647827,3.842659149,4.107039155
6.222819208,0.627046051,1.700763245,3.994443512,4.386497616
6.232871208,0.840651855,1.760489044,4.136947174,4.573876817
6.242923208,1.236129456,1.787133636,4.121379547,4.65914499
6.252975208,1.018182678,1.31172226,4.120481415,4.442485604
6.263027208,0.616268463,0.485440521,4.297263794,4.368285182
6.273079208,0.435594177,-0.06556366,4.609813843,4.630812515
6.283131208,0.596808929,-0.143701172,4.973856812,5.011594807
6.293183208,0.747994537,-0.416434021,5.263953552,5.333115424
6.303235208,0.735570374,-0.661923523,5.530549164,5.618378821
6.313287208,0.817001038,-0.762963409,5.740113373,5.847948819
6.323339208,0.850830688,-0.879421234,5.916446686,6.041658378
6.333391208,0.639021149,-1.084195404,6.167624359,6.294713491
6.343443208,0.276774445,-1.444047089,6.337820435,6.506138943
6.353495208,0.017962646,-1.772613831,6.602619781,6.836451596
6.363547208,0.069156189,-2.005679169,6.937772827,7.222203494
6.373599208,0.398770752,-2.139051819,7.318131866,7.634763573
6.383651208,0.715661774,-2.078876953,7.557933197,7.871229597
6.393703208,1.002315674,-2.123184814,7.432943115,7.794946685
6.403755208,1.237027588,-2.13770462,7.318281555,7.723811444
6.413807208,1.25783432,-2.234253845,7.3084021,7.745113212
6.423859208,1.348246307,-2.450254669,7.525600433,8.028460496
6.433911208,1.623523865,-2.662213898,7.935448151,8.526109894
6.443963208,1.867815857,-2.819836121,8.87279892,9.495618594
6.454015208,2.511177979,-2.81519577,10.500065,11.15718186
6.464067208,2.947520599,-2.707120514,12.32252518,12.95611847
6.474119208,2.91234375,-2.689157867,14.13750092,14.68271938
6.484171208,2.485431519,-2.691103821,15.39219177,15.82210407
6.494223208,1.620829468,-2.648741913,16.12372055,16.42002699
6.504275208,0.843046875,-2.334844666,16.97290466,17.15347546
6.514327208,0.472267914,-1.739832001,18.03030579,18.12020914
6.524379208,0.383502502,-0.836909637,19.07812683,19.100325
6.534431208,0.641266479,0.195044403,19.62583786,19.63728028
6.544483208,0.931063843,1.057401123,20.17190231,20.22104399
6.554535208,1.028810577,1.589694214,20.72634933,20.81266767
6.564587208,0.852626953,1.843416595,21.26283371,21.35961738
6.574639208,0.529898071,2.060764618,21.55293045,21.65770888
6.584691208,0.135318604,2.25236618,21.47673889,21.59494797
6.594743208,-0.353115692,2.305805054,20.9962381,21.1254217
6.604795208,-0.767454071,2.299817505,20.18223083,20.32733597
6.614847208,-1.12565918,2.344275055,19.12183594,19.29785853
6.624899208,-1.3748909,2.420765991,17.78032562,17.99695564
6.634951208,-1.446891174,2.524949341,16.45767609,16.71298793
6.645004208,-1.218316498,2.679428101,15.42856613,15.70682281
6.655055208,-0.693358154,2.784060516,14.81888397,15.09407369
6.665108208,-0.12753479,2.702180786,14.60782288,14.85619518
6.675160208,0.257165222,2.402803345,14.59225525,14.79099426
6.685212208,0.486188965,2.073039093,14.44840439,14.60446028
6.695264208,0.727636871,1.89790329,14.04693924,14.19323763
6.705316208,0.902622986,1.842967529,13.55715775,13.71159304
6.715368208,0.991388397,1.757195892,12.95870224,13.11482185
6.725420208,0.934506683,1.570983124,12.34243378,12.47705744
6.735472208,0.722846832,1.275796967,11.63171173,11.72377427
6.745524208,0.452509003,0.992585907,10.89359665,10.94807924
6.755576208,0.199984131,0.791853333,10.02779709,10.06100093
6.765628208,0.024998016,0.655636597,9.097930756,9.121558435
6.775680208,-0.080083466,0.514031067,8.308622131,8.324892974
6.785732208,-0.108674011,0.4153862,7.686665497,7.698648076
6.795784208,-0.094154205,0.318986664,7.338489532,7.34602247
6.805836208,-0.024848328,0.148042145,7.223079529,7.224639216
6.815888208,0.013771362,-0.035176849,7.32471817,7.324815584
6.825940208,0.048499146,-0.163160706,7.680677948,7.682563851
6.835992208,0.227077789,-0.254171448,8.156239014,8.163357293
6.846044208,0.455502777,-0.317639465,8.622220001,8.640084222
6.856096208,0.590821381,-0.383352814,8.948391724,8.976065047
6.866148208,0.61072998,-0.429007874,9.191785583,9.22203671
6.876200208,0.674796753,-0.407452698,9.383387146,9.41643896
6.886252208,0.758772125,-0.374820557,9.487869873,9.525539371
6.896304208,0.706979828,-0.304466858,9.574689331,9.60558152
6.906356208,0.568966827,-0.271235962,9.684261475,9.704752058
6.916408208,0.413889313,-0.220491486,9.809550934,9.820754064
6.926460208,0.335003357,-0.167801056,9.895023193,9.902114342
6.936512208,0.37676651,-0.159268799,9.907746735,9.916187015
6.946564208,0.453856201,-0.184266815,10.04516098,10.05709694
6.956616208,0.520767059,-0.257015533,10.2970871,10.31345034
6.966668208,0.607137451,-0.292641449,10.50485504,10.52645403
6.976720208,0.670306091,-0.367934875,10.65095123,10.67836357
6.986772208,0.651295624,-0.463286591,10.82938019,10.85883491
6.996824208,0.613424377,-0.502055969,10.77309723,10.80222077
7.006876208,0.540675659,-0.499810638,10.59152481,10.61708711
7.016927542,0.465831299,-0.501008148,10.32298325,10.34562666
7.026979542,0.454454956,-0.500259705,9.972412262,9.99528866
7.037031542,0.52765274,-0.455353088,9.620045013,9.645259453
7.047083542,0.686023407,-0.433797913,9.271120605,9.30658294
7.057135542,0.908460846,-0.434246979,9.05766449,9.113460241
7.067187542,1.117276611,-0.537831573,9.017996979,9.10284787
7.077239542,1.282083893,-0.63647644,9.00497406,9.118026058
7.087291542,1.373843079,-0.680484924,9.086255035,9.214691265
7.097343542,1.369502106,-0.730331268,9.220376129,9.350093889
7.107395542,1.326092377,-0.695753174,9.332193604,9.451583514
7.117447542,1.242266693,-0.58154068,9.455986176,9.554951107
7.127499542,1.097218323,-0.453706512,9.420060883,9.494592391
7.137551542,0.863703918,-0.381706238,9.274563446,9.322510994
7.147603542,0.63423111,-0.352067871,9.247020721,9.275429538
7.157655542,0.48678772,-0.287701721,9.252708893,9.269970681
7.167707542,0.402962036,-0.181871796,9.276808777,9.287337446
7.177759542,0.358654175,-0.161663818,9.403744812,9.411970277
7.187811542,0.399668884,-0.240549774,9.721983032,9.733167701
7.197863542,0.475261688,-0.32063324,10.06926086,10.08556859
7.207916542,0.554447021,-0.372275848,10.36295013,10.38444685
7.217968542,0.65758255,-0.409099274,10.62655197,10.65473528
7.228020542,0.672701111,-0.431851959,10.77683945,10.80644675
7.238072542,0.676892395,-0.425265656,10.84869003,10.8781023
7.248124542,0.662821655,-0.354013824,10.91530151,10.94113639
7.258176542,0.605191498,-0.27617569,10.83476898,10.85517152
7.268228542,0.540226593,-0.223185883,10.68238586,10.6983655
7.278280542,0.483344879,-0.201630707,10.58089691,10.59384995
7.288332542,0.41074585,-0.20821701,10.4258194,10.4359847
7.298384542,0.382155304,-0.227227478,10.19140686,10.20110037
7.308436542,0.353564758,-0.260308685,9.970466309,9.980128609
7.318488542,0.303868103,-0.284558258,9.821076965,9.829896336
7.328540542,0.270936584,-0.302371216,9.721234589,9.729708984
7.338592542,0.254321136,-0.291443939,9.670340424,9.678073296
7.348644542,0.228874054,-0.261955261,9.60402832,9.610325898
7.358696542,0.16375946,-0.273331604,9.544302521,9.54961978
7.368748542,0.051642609,-0.308658142,9.448202362,9.453383769
7.378800542,0.004041595,-0.315992889,9.354048157,9.359384849
7.388852542,-0.005688171,-0.314196625,9.249266052,9.254602875
7.398904542,-0.001646576,-0.337847443,9.163195038,9.169421296
7.408956542,-0.000149689,-0.371377716,9.130712585,9.138262075
7.419008542,0.039368134,-0.372724915,9.139843597,9.147525059
7.429060542,0.08307724,-0.377814331,9.207502899,9.215625596
7.439112542,0.1685495,-0.429756317,9.318422241,9.329849543
7.449164542,0.277971954,-0.463885345,9.459279327,9.474725506
7.459216542,0.413889313,-0.486638031,9.624835052,9.646013204
7.469268542,0.480201416,-0.534239044,9.807305603,9.833577576
7.479320542,0.450862427,-0.604143677,9.983788605,10.01220762
7.489372542,0.39428009,-0.626447296,10.10892838,10.13599161
7.499424542,0.348325653,-0.616867218,10.10488678,10.12968868
7.509476542,0.310005341,-0.60608963,10.13991394,10.1627409
7.519528542,0.285157013,-0.575553131,10.07524841,10.09570238
7.529580542,0.293838959,-0.545615387,9.950258331,9.969537519
7.539632542,0.330512695,-0.513582001,9.857451324,9.876353159
7.549684542,0.368833008,-0.489182739,9.767189026,9.786384368
7.559736542,0.38140686,-0.453706512,9.717941437,9.736000542
7.569788542,0.354762268,-0.435145111,9.724827118,9.741019968
7.579840542,0.332159271,-0.404159546,9.792336731,9.806300698
7.589892542,0.331710205,-0.361947327,10.04710693,10.05909515
7.599944542,0.316292267,-0.370479584,10.38495438,10.39637308
7.609996542,0.326920166,-0.342936859,10.49916687,10.50985192
7.620048542,0.339494019,-0.277373199,10.48060547,10.4897704
7.630100542,0.272732849,-0.273181915,10.22553589,10.23281954
7.640152542,0.199235687,-0.227826233,9.902507629,9.907131623
7.650204542,0.165855103,-0.141306152,9.655072174,9.657530431
7.660256542,0.084424438,-0.094303894,9.566306763,9.567144077
7.670308542,0.028740234,-0.142353973,9.624086609,9.625182269
7.680360542,0.043858795,-0.167950745,9.669142914,9.670700892
7.690412542,0.050445099,-0.139509888,9.724677429,9.725808903
7.700464542,0.092058563,-0.183967438,9.779014435,9.781177951
7.710516542,0.095202026,-0.198337555,9.753717041,9.756197893
7.720568542,0.057031403,-0.205223236,9.714797974,9.717132747
7.730620542,0.024848328,-0.22228775,9.680968323,9.683551877
7.740672542,-0.030985565,-0.245040436,9.684111786,9.687261017
7.750724542,-0.09595047,-0.269589386,9.748477936,9.752676914
7.760776542,-0.175135803,-0.271984406,9.860894165,9.866198954
7.770828542,-0.19070343,-0.237705688,10.00294876,10.00758991
7.780880542,-0.123792572,-0.217497711,10.24634262,10.24939837
7.790933542,0.025596771,-0.218545532,10.56847275,10.57076315
7.800985542,0.162412262,-0.297132111,10.89284821,10.89811026
7.811037542,0.335302734,-0.302670593,11.18414246,11.19326047
7.821089542,0.535286865,-0.253273315,11.40628052,11.42164238
7.831141542,0.687071228,-0.246687012,11.88588318,11.90828032
7.841193542,0.678538971,-0.282312927,12.82667679,12.84771393
7.851245542,0.542022858,-0.49966095,13.80803604,13.82770079
7.861297542,0.295934601,-0.735720062,14.40738968,14.42919744
7.871349542,-0.078287201,-0.892593842,14.51441711,14.54204789
7.881401542,-0.496667175,-0.957558746,14.38793015,14.42831005
7.891453542,-0.922531586,-0.920136566,14.12402893,14.18400187
7.901505542,-1.259181519,-0.77463913,13.72690475,13.80628545
7.911557542,-1.452579346,-0.580642548,13.25478653,13.34677858
7.921609542,-1.425785065,-0.427810364,12.8491301,12.93506973
7.931661542,-1.202748871,-0.331560516,12.50424728,12.56633349
7.941713542,-0.716260529,-0.130678253,12.38569382,12.40707529
7.951765542,-0.019010468,0.308209076,12.047547,12.05150376
7.961817542,0.521515503,0.757724304,11.35164413,11.38885197
7.971869542,0.6330336,0.968635712,11.00242035,11.06310265
7.981921542,0.508342896,0.975970459,11.17126923,11.22533683
7.991973542,0.624052277,0.902922363,12.2160965,12.26530569
8.002025542,0.861757965,0.879271545,13.5285672,13.58447186
8.012077333,1.122964783,0.866548004,14.13345932,14.20445802
8.022129333,1.414708099,0.721799011,14.77577362,14.86088419
8.032181333,1.648072815,0.536783752,15.24085648,15.33909994
8.042233333,1.604513397,0.258961487,15.22483978,15.31134451
8.052285333,1.368903351,-0.143401794,15.08473114,15.14739496
8.062337333,1.291065216,-0.437390442,14.52878723,14.59259464
8.072389333,1.241218872,-0.703387299,14.51501587,14.58496019
8.082441333,1.208137665,-0.924627228,14.92456421,15.00190484
8.092493333,1.148711243,-0.887354736,14.89163269,14.96220773
8.102545333,1.216520233,-0.787811737,14.44660812,14.51912722
8.112597333,1.156644745,-0.82493454,13.82405273,13.89686217
8.122649333,0.939446411,-1.220711517,13.3228949,13.41164511
8.132701333,1.009051666,-1.470092926,13.86821091,13.98236862
8.142753333,1.031954041,-1.597328339,14.991026,15.11116301
8.152805333,0.982257385,-1.638043671,15.44727722,15.56490894
8.162857333,0.956211548,-1.458866272,15.23561737,15.33514486
8.172909333,0.779878235,-1.124611359,14.62234268,14.68624752
8.182961333,0.423170013,-0.890647888,13.37109467,13.40740464
8.193013333,-0.105979614,-0.843945007,12.1217926,12.15159787
8.203065333,-0.795595551,-0.822389832,11.30673752,11.36448902
8.213117333,-1.641935577,-0.790805511,10.9552684,11.10581972
8.223169333,-2.247276764,-1.004111938,10.59541672,10.87756172
8.233221333,-2.547103271,-1.283281403,10.43195663,10.81481694
8.243273333,-2.214345245,-1.121168518,10.88521408,11.16459714
8.253325333,-1.324146423,-0.757424927,11.41481277,11.51629311
8.263377333,-0.387095032,-0.616418152,11.93213699,11.95431751
8.273429333,0.09475296,-0.740061035,12.13631241,12.15922478
8.283481333,0.051941986,-1.239721985,11.49684219,11.56360623
8.293533333,0.360151062,-1.608105927,10.52596115,10.65418095
8.303585333,0.8705896,-1.616638184,9.841284943,10.01111056
8.313637333,1.160985718,-1.521735535,9.277108154,9.472502446
8.323689333,1.308279419,-1.461261292,8.250991974,8.480904914
8.333741333,1.336869965,-1.423839111,7.117099915,7.380220207
8.343793333,1.491648102,-1.211430817,6.312373352,6.598381318
8.353845333,1.744472351,-0.657133484,5.812862091,6.104455249
8.363897333,1.903591461,-0.398770752,4.940326538,5.309378953
8.373949333,1.901645508,-0.568966827,3.591780853,4.103762735
8.384001333,1.805994415,-0.548309784,2.523751831,3.151441377
8.394053333,1.753603363,-0.391585693,1.92709259,2.634796
8.404105333,1.810934143,-0.168100433,1.534608765,2.379656338
8.414158333,1.961520996,0.015118561,1.238524475,2.319856906
8.424209333,2.052681427,0.104033661,1.131197662,2.346046077
8.434261333,2.146536255,0.116757202,1.219813385,2.471678545
8.444314333,2.199376373,0.151335297,1.412612457,2.618326328
8.454366333,2.129022675,0.169896698,1.492845612,2.605799389
8.464418333,1.870510254,0.148491211,1.497036896,2.400411989
8.474470333,1.507664795,0.173788605,1.486858063,2.124618204
8.484522333,1.166374512,0.248333588,1.488953705,1.907637861
8.494574333,0.834963684,0.346828766,1.582808533,1.822837732
8.504626333,0.571212158,0.496517487,1.739083557,1.896635063
8.514678333,0.472866669,0.757873993,1.868414612,2.070977797
8.524730333,0.445473633,1.008003845,1.956581268,2.245602095
8.534782333,0.362097015,1.137634277,2.022743683,2.348790754
8.544834333,0.236059113,1.19002533,2.149979095,2.468662452
8.554886333,0.173788605,1.206042023,2.390977936,2.683563923
8.564938333,0.178279266,1.190773773,2.614762573,2.878664446
8.574990333,0.242795105,1.184037781,2.848875732,3.094670882
8.585042333,0.228724365,1.25783432,3.023113403,3.282327933
8.595094333,0.166902924,1.416504364,3.181783447,3.486844864
8.605146333,0.146694946,1.630858612,3.215463409,3.608382485
8.615198333,0.102387085,1.809287567,3.134930878,3.621021434
8.625250333,0.047002258,1.882335663,3.006497955,3.547453554
8.635302333,0.259260864,2.022593994,2.906056824,3.550108297
8.645354333,0.540376282,2.203417969,2.890040131,3.674151498
8.655406333,0.724194031,2.367327118,3.049009552,3.927486973
8.665458333,0.81670166,2.517315216,3.343447266,4.264096284
8.675510333,0.929417267,2.655178528,3.723357239,4.666602468
8.685562333,1.089733887,2.729873199,4.179608459,5.109682427
8.695614333,1.096769257,2.686613159,4.561913452,5.406648446
8.705666333,0.947828979,2.492466888,4.814138947,5.503335785
8.715718333,0.617316284,2.244432678,5.000800781,5.516028091
8.725770333,0.298179932,2.187850342,5.070855103,5.530747857
8.735822333,0.268691254,2.291434937,5.19404892,5.683398036
8.745874333,0.301473083,2.065554657,5.532495117,5.913197467
8.755926333,0.230370941,1.720821533,6.098168793,6.340501569
8.765978333,0.144898682,1.268312531,6.637796631,6.759434622
8.776030333,0.204474792,0.664917297,6.755451965,6.791174877
8.786082333,0.164208527,0.252075806,6.72102356,6.727753291
8.796134333,0.172142029,0.097597046,6.651717682,6.654660486
8.806186333,0.152682495,0.030237122,6.367009735,6.368911932
8.816238333,0.12753479,-0.16615448,6.023174744,6.026815612
8.826290333,0.001945953,-0.664168854,5.601052551,5.640293763
8.836342333,0.203426971,-1.0285112,5.244044952,5.347824351
8.846394333,0.456999664,-0.797541504,5.003794556,5.087522098
8.856446333,0.669407959,-0.761616211,4.85350708,4.9582958
8.866498333,1.100511475,-0.708776093,4.950954437,5.121077904
8.876550333,1.481918335,-0.651295624,5.299729156,5.541425545
8.886602333,1.536854095,-0.667162628,5.791007538,6.028498552
8.896654333,1.109941864,-0.930315399,6.170468445,6.338149455
8.906706333,0.788709869,-1.194515991,6.393804016,6.552073069
8.916758333,0.699645081,-1.230291595,6.6156427,6.765341749
8.926810333,0.620908813,-1.168769531,7.138056335,7.259710615
8.936862333,0.723445587,-0.976868591,7.79983017,7.893984826
8.946914333,1.251547394,-0.55699173,8.676407318,8.783886077
8.956966333,1.810634766,-0.141904907,9.992919617,10.15662236
8.967018333,2.030677185,-0.06436615,11.14731903,11.33095382
8.977070333,1.645228729,-0.446820831,12.27297821,12.39082001
8.987122333,0.712967377,-0.781375122,12.82413208,12.86768173
8.997174333,-0.043409729,-0.492475891,12.84194504,12.85145787
9.007226333,-0.477507019,-0.092357941,12.99118469,13.00028548
9.017278792,-0.973725128,-0.075742493,13.17649933,13.21264592
9.027330792,-1.250948639,-0.147293701,13.2697554,13.3294027
9.037382792,-0.745449829,0.182171173,13.59712463,13.61876206
9.047434792,0.293838959,0.692609711,14.30664917,14.32641825
9.057486792,1.294508057,1.365610199,15.23636581,15.35211665
9.067538792,1.849553833,1.902693329,16.10485977,16.32199741
9.077590792,1.887724457,2.079475708,17.1342691,17.3629174
9.087642792,1.144220581,1.823657684,18.26920898,18.39562353
9.097694792,-0.150137787,1.23792572,19.15835999,19.19889994
9.107746792,-1.343755646,0.819545746,19.82477417,19.88715679
9.117798792,-2.044298859,0.508043518,20.03703278,20.14745514
9.127851792,-2.185305634,0.235011292,20.00050873,20.12091301
9.137902792,-1.912572784,0.035925293,20.05903702,20.15004197
9.147955792,-1.526076508,-0.058079224,20.09466293,20.15261177
9.158007792,-1.078656921,-0.06780899,19.59365479,19.62344023
9.168059792,-0.71730835,-0.044607239,18.69222931,18.70604067
9.178111792,-0.463585968,0.031284943,17.61162643,17.61775458
9.188163792,-0.165855103,0.391286316,16.2238623,16.22942762
9.198215792,0.117505646,0.900078278,14.75960724,14.78749317
9.208267792,0.174686737,1.19930603,13.67002304,13.72364311
9.218319792,0.068108368,1.184636536,13.17784653,13.23116176
9.228371792,-0.01167572,1.094823303,13.12051575,13.1661197
9.238423792,-0.086370392,1.066831512,13.20733521,13.25063367
9.248475792,-0.266595612,0.910556488,13.13698151,13.17119848
9.258527792,-0.540975037,0.651445313,12.77862671,12.806652
9.268579792,-0.791553955,0.453556824,11.96282318,11.9975585
9.278631792,-0.879720612,0.366887054,10.95362183,10.99501458
9.288683792,-0.81550415,0.233215027,10.06027954,10.0959725
9.298735792,-0.588126984,0.104632416,9.407936096,9.426881928
9.308787792,-0.167202301,0.113763428,9.13131134,9.133550543
9.318839792,0.297880554,0.211210785,9.177265778,9.184527749
9.328891792,0.516126709,0.248932343,9.511071625,9.528317666
9.338943792,0.371228027,0.237556,10.00264938,10.01235426
9.348995792,0.029189301,0.202528839,10.49677185,10.49876608
9.359047792,-0.360001373,0.195044403,10.91066116,10.91834101
9.369099792,-0.800984344,0.158819733,11.10465775,11.13464069
9.379151792,-1.256786499,0.055983582,11.00032471,11.07202737
9.389203792,-1.535506897,-0.066761169,10.68268524,10.79268282
9.399255792,-1.495090942,-0.192649384,10.2771785,10.38714632
9.409307792,-1.087787933,-0.318687286,9.93753479,10.0019719
9.419359792,-0.595012665,-0.517024841,9.720186768,9.75209647
9.429411792,-0.130528564,-0.683927765,9.534872131,9.560260533
9.439463792,0.254919891,-0.726738739,9.482481079,9.513704891
9.449515792,0.487087097,-0.681532745,9.614356842,9.650782259
9.459567792,0.476459198,-0.698148193,9.896220703,9.932250927
9.469619792,0.277971954,-0.721499634,10.26280838,10.29189322
9.479671792,0.007933502,-0.655786285,10.48090485,10.50140395
9.489723792,-0.23052063,-0.529898071,10.56832306,10.58410998
9.499775792,-0.404758301,-0.438138885,10.61263092,10.62938051
9.509827792,-0.435743866,-0.468974762,10.49093399,10.51044747
9.519879792,-0.410596161,-0.533789978,10.32268387,10.34462775
9.529931792,-0.365240479,-0.554447021,10.11716125,10.13892322
9.539983792,-0.434246979,-0.560883636,9.947563934,9.972822525
9.550035792,-0.475710754,-0.373173981,9.90834549,9.926775402
9.560087792,-0.317190399,0.021555176,9.877659302,9.882774289
9.570139792,-0.136965179,0.335901489,9.8790065,9.885664303
9.580191792,-0.04685257,0.407303009,9.864037628,9.872554342
9.590243792,-0.025297394,0.237855377,9.944719849,9.947596092
9.600295792,-0.011226654,-0.010328522,10.17149826,10.1715097
9.610347792,-0.062420197,-0.25387207,10.24304947,10.2463852
9.620399792,-0.012723541,-0.409099274,10.06491989,10.07323863
9.630451792,0.169597321,-0.476010132,9.868378601,9.881307864
9.640503792,0.316891022,-0.484093323,9.639504547,9.656853223
9.650555792,0.333805847,-0.473615112,9.412576447,9.430394105
9.660607792,0.23396347,-0.426463165,9.246871033,9.259656237
9.670659792,0.150137787,-0.3556604,9.074130249,9.082338655
9.680711792,0.080083466,-0.277522888,8.997040558,9.001676017
9.690763792,0.051193542,-0.220192108,9.008865967,9.011701912
9.700815792,0.056282959,-0.156275024,9.091643829,9.093161011
9.710867792,0.093256073,-0.094453583,9.231752472,9.232706639
9.720919792,0.080233154,-0.044756927,9.419462128,9.419910154
9.730971792,0.000299377,-0.031734009,9.562115479,9.562168141
9.741023792,-0.075892181,-0.016765137,9.636361084,9.636674511
9.751075792,-0.125439148,-0.031883698,9.690847778,9.691712037
9.761127792,-0.15911911,-0.02694397,9.610764313,9.612119201
9.771179792,-0.155975647,0,9.477990417,9.479273746
9.781231792,-0.066162415,-0.040565643,9.472451935,9.472769853
9.791283792,0.06316864,-0.082179108,9.665550385,9.66610614
9.801335792,0.225281525,-0.112715607,9.803264008,9.806499976
9.811387792,0.321531372,-0.104482727,9.876012726,9.881797732
9.821439792,0.372425537,-0.086370392,9.896520081,9.903901773
9.831491792,0.389490051,-0.073048096,9.923913116,9.931822092
9.841543792,0.353265381,-0.044906616,9.99606308,10.00240422
9.851595792,0.268691254,0.008831635,10.0448616,10.04845847
9.861647792,0.130827942,0.052391052,10.02285736,10.02384809
9.871699792,0.065114594,0.066761169,9.919123077,9.919561462
9.881751792,0.043858795,0.077538757,9.734107819,9.734515441
9.891803792,0.113314362,0.067958679,9.609117737,9.610026129
9.901855792,0.173788605,0.036074982,9.614955597,9.616593732
9.911907792,0.198337555,-0.009879456,9.595795441,9.597850047
9.921959792,0.252824249,-0.059426422,9.56076828,9.564295149
9.932011792,0.347726898,-0.100890198,9.541458435,9.548325607
9.942063792,0.417930908,-0.123044128,9.597591705,9.607474832
9.952115792,0.455652466,-0.124690704,9.717791748,9.729267362
9.962168792,0.403261414,-0.137713623,9.882449341,9.891632311
9.972220792,0.273032227,-0.169747009,9.975106659,9.980286243
9.982272792,0.098046112,-0.187559967,10.00579285,10.00803089
9.992324792,-0.062569885,-0.183518372,9.976004791,9.977888834
10.00237679,-0.16615448,-0.159418488,9.930200043,9.932869397
10.01242867,-0.239202576,-0.142204285,9.829309845,9.833248291
10.02248067,-0.223185883,-0.154179382,9.679920502,9.683720573
10.03253267,-0.175884247,-0.156125336,9.538764038,9.541662841
10.04258467,-0.138162689,-0.176333313,9.44610672,9.448762593
10.05263667,-0.112266541,-0.175884247,9.490115204,9.492408842
10.06268867,-0.059426422,-0.163609772,9.564360809,9.565944666
10.07274067,-0.040865021,-0.130827942,9.653724976,9.654697914
10.08279267,-0.066012726,-0.112416229,9.720186768,9.721060944
10.09284467,-0.083376617,-0.097896423,9.756710815,9.757558163
10.10289667,-0.065264282,-0.058677979,9.848470001,9.848861046
10.11294867,-0.070653076,-0.004041595,9.879305878,9.879559343
10.12300067,-0.077538757,0.032632141,9.859846344,9.860205223
10.13305267,-0.044756927,0.043559418,9.779463501,9.779662927
10.14310467,0.034877472,0.068856812,9.722581787,9.722888167
10.15315667,0.09355545,0.068856812,9.798024902,9.79871348
10.16320867,0.088765411,0.058378601,9.85326004,9.853832796
10.17326067,0.063018951,0.044307861,9.858499146,9.858800129
10.18331267,0.006137238,0.026794281,9.871671753,9.871710024
10.19336467,-0.053887939,0.036074982,9.854906616,9.855119975
10.20341667,-0.109572144,0.034278717,9.861642609,9.862310887
10.21346867,-0.167202301,0.022602997,9.96088623,9.962315092
10.22352067,-0.236508179,0.017962646,9.95280304,9.955628916
10.23357267,-0.281115417,0.020657043,9.888287201,9.892303895
10.24362467,-0.29832962,0.013172607,9.803413696,9.807960755
10.25367667,-0.234562225,0.030985565,9.690847778,9.693735617
10.26372867,-0.181273041,0.036374359,9.637558594,9.639331857
10.27378067,-0.134869537,0.009580078,9.695937195,9.696879893
10.28383267,-0.114362183,-0.065114594,9.759854279,9.760741476
10.29388467,-0.081280975,-0.09011261,9.857900391,9.858647321
10.30393667,-0.047301636,-0.095651093,9.896071014,9.896646306
10.31398867,-0.004490662,-0.100291443,9.852810974,9.853322416
10.32404067,0.016914825,-0.107476501,9.794282684,9.794886963
10.33409267,0.02574646,-0.108224945,9.776320038,9.776952951
10.34414467,-0.000898132,-0.132025452,9.792336731,9.79322675
10.35419667,-0.080382843,-0.154179382,9.802665253,9.804207196
10.36424867,-0.142204285,-0.15328125,9.799372101,9.801602459
10.37430067,-0.167950745,-0.130678253,9.761800232,9.764119419
10.38435267,-0.148491211,-0.106877747,9.739197235,9.740915526
10.39440467,-0.083675995,-0.120798798,9.816586304,9.817686116
10.40445667,-0.008981323,-0.104333038,9.868079224,9.86863484
10.41450867,0.020357666,-0.114811249,9.884395294,9.885083024
10.42456067,0.065863037,-0.104033661,9.844727783,9.845497756
10.43461267,0.076940002,-0.051792297,9.780960388,9.781400121
10.44466467,0.047601013,-0.031734009,9.7502742,9.750442035
10.45471667,0.00119751,-0.013771362,9.752070465,9.752080262
10.46476867,-0.055983582,0.007933502,9.75850708,9.75867089
10.47482067,-0.129480743,0.019758911,9.77602066,9.776898058
10.48487267,-0.152233429,0.017663269,9.728269958,9.729477036
10.49492467,-0.132773895,0.0199086,9.653575287,9.654508847
10.50497667,-0.099692688,0.009280701,9.584269409,9.584792375
10.51502867,-0.057031403,-0.028740234,9.617500305,9.617712342
10.52508067,-0.064216461,-0.03861969,9.641300812,9.641592015
10.53513267,-0.071850586,-0.02110611,9.676777039,9.677066799
10.54518467,-0.091908875,-0.028590546,9.727222137,9.727698349
10.55523667,-0.140707397,-0.023800507,9.759854279,9.760897529
10.56528867,-0.17438736,-0.022303619,9.785900116,9.78747922
10.57534067,-0.174537048,-0.03622467,9.834099884,9.835715324
10.58539267,-0.182919617,-0.040865021,9.857301636,9.859083379
10.59544467,-0.169148254,-0.055534515,9.880802765,9.882406513
10.60549667,-0.138761444,-0.06197113,9.818382568,9.819558616
10.61554867,-0.073048096,-0.054037628,9.748777313,9.749200746
10.62560067,-0.037272491,-0.070653076,9.764794006,9.765120741
10.63565267,-0.049247589,-0.099692688,9.777667236,9.778299471
10.64570467,-0.098944244,-0.108374634,9.783804474,9.784904957
10.65575667,-0.11346405,-0.092807007,9.811945953,9.813040845
10.66580867,-0.188757477,-0.059276733,9.77841568,9.780416981
10.67586067,-0.338745575,-0.02110611,9.665700073,9.671657145
10.68591267,-0.496367798,-0.005388794,9.607022095,9.619838021
10.69596467,-0.487536163,-0.018112335,9.59115509,9.603555359
10.70601667,-0.35341507,-0.03861969,9.623188477,9.629753379
10.71606867,-0.177381134,-0.087268524,9.690997467,9.693013555
10.72612067,-0.047002258,-0.158670044,9.837093658,9.838485505
10.73617267,0.060773621,-0.186961212,9.97735199,9.979288585
10.74622467,0.146395569,-0.158071289,10.10219238,10.10448955
10.75627667,0.204624481,-0.126486969,10.14350647,10.14635864
10.76632867,0.225730591,-0.128432922,10.13407608,10.13740338
10.77638067,0.211360474,-0.132923584,10.0740509,10.07714461
10.78643267,0.149239655,-0.117206268,9.97375946,9.975564523
10.79648467,0.072000275,-0.080532532,9.864486694,9.865078169
10.80653667,-0.010178833,-0.068108368,9.770631866,9.770874548
10.81658867,-0.060773621,-0.076191559,9.704319763,9.704809151
10.82664067,-0.05029541,-0.099393311,9.673783264,9.674424598
10.83669267,0.009280701,-0.130079498,9.612560577,9.61344515
10.84674467,0.066312103,-0.152233429,9.628876648,9.630308293
10.85679667,0.065863037,-0.191751251,9.657467194,9.659595182
10.86684867,0.05613327,-0.190553741,9.67542984,9.677468898
10.87690067,0.024698639,-0.18486557,9.703870697,9.705662873
10.88695267,-0.054187317,-0.201031952,9.72228241,9.724511575
10.89700467,-0.099842377,-0.197439423,9.725126495,9.727642889
10.90705667,-0.138462067,-0.169747009,9.701775055,9.704247782
10.91710867,-0.170645142,-0.166304169,9.677974548,9.680907406
10.92716167,-0.184566193,-0.18606308,9.682016144,9.685562491
10.93721367,-0.17663269,-0.194295959,9.677675171,9.681236839
10.94726567,-0.124391327,-0.187559967,9.678573303,9.681189655
10.95731767,-0.061821442,-0.17079483,9.737999725,9.7396936
10.96736967,-0.029788055,-0.17079483,9.844278717,9.845805283
10.97742167,-0.023950195,-0.178728333,9.947264557,9.948898914
10.98747367,-0.036673737,-0.179626465,9.977202301,9.97888653
10.99752567,-0.029638367,-0.154927826,9.978998566,9.980245159
11.00757767,-0.030087433,-0.109572144,9.943522339,9.94417155
11.01762996,-0.051343231,-0.089064789,9.867929535,9.868465026
11.02768196,-0.072000275,-0.083376617,9.837991791,9.838608549
11.03773396,-0.090861053,-0.081131287,9.770033112,9.770792446
11.04778596,-0.124541016,-0.083825684,9.689051514,9.690214468
11.05783796,-0.13457016,-0.064515839,9.687704315,9.688853715
11.06788996,-0.154179382,-0.046553192,9.729018402,9.730351358
11.07794196,-0.153131561,-0.03742218,9.755662994,9.756936515
11.08799396,-0.171393585,-0.055983582,9.779313812,9.780975849
11.09804596,-0.176333313,-0.079933777,9.822723541,9.824631322
11.10809796,-0.17438736,-0.107326813,9.838740234,9.840870866
11.11814996,-0.140258331,-0.121996307,9.816286926,9.818046879
11.12820196,-0.085771637,-0.125738525,9.781409454,9.782593616
11.13825396,-0.066761169,-0.131875763,9.734407196,9.73552935
11.14830596,-0.072000275,-0.143401794,9.727222137,9.728545556
11.15835796,-0.103434906,-0.1486409,9.7900914,9.791766057
11.16840996,-0.138013,-0.149089966,9.838440857,9.840538293
11.17846196,-0.112565918,-0.136665802,9.848470001,9.850061421
11.18851396,-0.083675995,-0.122744751,9.830207977,9.831330369
11.19856596,-0.063318329,-0.153730316,9.776918793,9.778332337
11.20861796,-0.04565506,-0.160017242,9.742640076,9.74406104
11.21866996,-0.056582336,-0.172291718,9.715696106,9.717388374
11.22872196,-0.034877472,-0.168399811,9.712702332,9.7142247
11.23877396,-0.033829651,-0.174087982,9.734107819,9.735723193
11.24882596,-0.048199768,-0.193248138,9.723030853,9.725070541
11.25887796,-0.057480469,-0.185913391,9.73740097,9.739345227
11.26892996,-0.083825684,-0.176932068,9.746681671,9.74864787
11.27898196,-0.085921326,-0.168998566,9.759854279,9.761695474
11.28903396,-0.074694672,-0.18486557,9.701325989,9.703374697
11.29908596,-0.079933777,-0.187859344,9.692045288,9.694195295
11.30913796,-0.059426422,-0.196840668,9.716893616,9.719068849
11.31918996,-0.059426422,-0.170345764,9.742640076,9.744310382
11.32924196,-0.1088237,-0.171543274,9.809850311,9.811953568
11.33929396,-0.150287476,-0.188757477,9.895621948,9.898562999
11.34934596,-0.185164948,-0.17199234,9.93992981,9.94314196
11.35939796,-0.204474792,-0.134719849,9.958191833,9.961201934
11.36944996,-0.230820007,-0.109422455,9.97615448,9.9794243
11.37950196,-0.27258316,-0.125139771,9.977202301,9.981709638
11.38955396,-0.310155029,-0.126187592,9.940678253,9.946316081
11.39960596,-0.336200867,-0.098195801,9.917775879,9.923958475
11.40965796,-0.432600403,-0.094004517,9.93289444,9.942754744
11.41970996,-0.58154068,-0.167501678,10.11311966,10.13121097
11.42976196,-0.625848541,-0.238154755,10.3966301,10.41817265
11.43981396,-0.563428345,-0.263003082,10.9500293,10.96766902
11.44986596,-0.468226318,-0.274678802,11.75969559,11.77221834
11.45991796,-0.377065887,-0.294437714,12.60124557,12.61032364
11.46996996,-0.189206543,-0.212408295,13.69906265,13.70201569
11.48002196,0.122295685,-0.060474243,14.61321167,14.61384852
11.49007396,0.319136353,-0.055983582,15.26510605,15.26854429
11.50012596,0.483644257,0.012723541,15.75189377,15.75932203
11.51017796,0.464633789,0.012573853,15.96011078,15.96687755
11.52022996,0.397573242,-0.035476227,16.06085129,16.0658105
11.53028196,0.365539856,-0.042062531,16.18269791,16.1868805
11.54033396,0.369431763,-0.058378601,16.35483994,16.35911603
11.55038596,0.399070129,-0.097297668,16.70795563,16.71300407
11.56043796,0.513282623,-0.045804749,17.09939163,17.10715497
11.57048996,0.77688446,-0.033829651,17.52375916,17.54100421
11.58054196,1.160536652,0.004340973,18.06039322,18.09764259
11.59059396,1.438209229,0.11002121,18.14362015,18.20086543
11.60064596,1.663341064,0.225131836,17.80786835,17.88679857
11.61069796,1.702709198,0.342338104,17.44666946,17.53290305
11.62074996,1.311871948,0.425565033,17.01197342,17.067787
11.63080196,0.689765625,0.510887604,16.51785095,16.54013854
11.64085396,-0.249980164,0.521066437,16.19182892,16.20213949
11.65090596,-1.275198212,0.292042694,15.96969086,16.02318462
11.66095796,-2.236499176,-0.207468567,15.71611816,15.87580996
11.67100996,-3.08897644,-0.845591583,15.33396286,15.66484017
11.68106196,-3.73024292,-1.362167358,14.50902832,15.04267646
11.69111396,-3.775299225,-1.757794647,13.22350159,13.86375564
11.70116596,-3.229833527,-1.99265625,11.88259003,12.47391075
11.71121796,-2.476450195,-2.104922791,11.18414246,11.64682566
11.72126996,-1.663939819,-2.227667542,11.74442734,12.06908331
11.73132196,-0.894240417,-2.264191589,12.81155823,13.04079191
11.74137396,-0.02694397,-2.144889679,13.65969452,13.82709413
11.75142596,0.982407074,-1.999242554,13.63724121,13.81797533
11.76147796,1.517693939,-1.950294342,12.46966919,12.71218678
11.77152996,1.249002686,-2.167792053,10.62685135,10.9173852
11.78158196,0.531844025,-2.444865875,8.550519104,8.90907426
11.79163396,-0.151035919,-2.479893036,6.913523254,7.346392659
11.80168596,-0.366587677,-2.175126801,5.782475281,6.188908102
11.81173796,-0.260757751,-1.640887756,5.138364716,5.400305471
11.82178996,0.018262024,-1.106648712,4.813540192,4.939147097
11.83184196,0.300275574,-0.840651855,4.347409515,4.438111136
11.84189396,0.988544312,-1.290466461,3.298690338,3.677483037
11.85194596,1.484013977,-1.356329498,2.892285461,3.522391571
11.86199796,1.860630798,-0.703986053,3.265160065,3.823455712
11.87204996,1.860930176,-0.398022308,3.556304626,4.033458252
11.88210196,1.708846436,-0.386496277,3.809428253,4.193003593
11.89215396,1.491648102,-0.403411102,4.258494415,4.530179827
11.90220596,1.113085327,-0.444276123,4.471501465,4.629326686
11.91225796,0.756227417,-0.338895264,4.674329681,4.747218962
11.92230996,0.422720947,-0.07140152,4.874762878,4.893577863
11.93236196,0.126187592,-0.013322296,4.398153992,4.399984014
11.94241396,-0.364492035,-0.160466309,3.674259338,3.695779426
11.95246596,-0.862955475,-0.236059113,3.103496246,3.229876934
11.96251796,-1.177750854,-0.138611755,2.810405731,3.050359105
11.97256996,-1.338965607,0.058378601,2.658621368,2.977331782
11.98262196,-1.152752838,0.223934326,2.617906036,2.869219006
11.99267396,-0.727636871,0.395776978,2.805016937,2.924758939
12.00272596,-0.652792511,0.569116516,3.45286972,3.559823167
12.01277796,-0.336051178,0.751587067,4.010310516,4.093947233
12.02282942,0.143551483,0.936752014,4.040697327,4.150342908
12.03288142,0.23171814,1.035995636,3.928580475,4.069487044
12.04293342,0.198636932,1.054856415,3.857927399,4.004470315
12.05298542,0.120050354,1.043031006,3.715124359,3.860631395
12.06303742,-0.038470001,0.993933105,3.579805756,3.715426248
12.07308942,-0.220641174,0.930614777,3.484903107,3.613762036
12.08314142,-0.427660675,0.837658081,3.372337189,3.501031681
12.09319342,-0.486937408,0.704135742,3.142115936,3.256655914
12.10324542,-0.350870361,0.633332977,2.759212189,2.852625558
12.11329742,-0.132324829,0.707728271,2.36478241,2.471959751
12.12334942,0.07140152,0.919088745,2.110610962,2.303150219
12.13340142,0.177680511,1.129700775,1.856738892,2.180658964
12.14345342,0.258512421,1.365011444,1.506317596,2.049165102
12.15350642,0.422720947,1.639989624,1.263522491,2.112995043
12.16355842,0.595910797,2.021845551,1.249002686,2.450097308
12.17361042,0.537382507,2.138303375,1.347348175,2.583886296
12.18366242,0.524509277,2.073188782,1.326242065,2.516374321
12.19371442,0.306263123,1.866618347,1.309177551,2.300436266
12.20376642,-0.165855103,1.536704407,1.462758179,2.128057762
12.21381842,-0.521964569,0.88106781,1.994452515,2.242000966
12.22387042,-0.858015747,0.264949036,2.219434662,2.394217875
12.23392242,-0.921334076,-0.166902924,2.366728363,2.545214374
12.24397442,-0.598605194,-0.367635498,2.687960358,2.778239537
12.25402642,-0.214204559,-0.624950409,3.139421539,3.208179267
12.26407842,0.087118835,-1.063388672,3.843257904,3.988610845
12.27413042,0.095052338,-1.584604797,4.742438049,5.001072481
12.28418242,0.006137238,-1.868115234,5.735173645,6.031758362
12.29423442,0.13457016,-2.044448547,6.474336548,6.790796178
12.30428642,0.3662883,-2.08037384,7.016509094,7.32758639
12.31433842,0.751736755,-2.13426178,7.257208557,7.601793047
12.32439042,1.029259644,-2.346670074,7.101083221,7.549279354
12.33444242,0.983604584,-2.765199738,6.851851501,7.453970523
12.34449442,0.621507568,-3.170107727,6.84272049,7.566946435
12.35454642,0.439785461,-3.064726868,7.040908356,7.691576724
12.36459842,0.545615387,-2.705324249,7.302264862,7.806378646
12.37465042,0.705482941,-2.522853699,7.686964874,8.121079112
12.38470242,0.558488617,-2.679577789,8.79196701,9.208188235
12.39475442,0.578696594,-2.733465729,10.08393036,10.46386048
12.40480642,0.939745789,-2.667602692,11.08175537,11.43698074
12.41485842,1.139729919,-2.431693268,12.30007187,12.58983258
12.42491042,1.242865448,-2.215692444,13.35837112,13.59779712
12.43496242,1.299896851,-1.964814148,13.78258896,13.98248851
12.44501442,1.154549103,-1.775607605,13.99649414,14.15583322
12.45506642,0.801882477,-1.719324646,14.28808777,14.41348483
12.46511842,0.166902924,-1.722917175,14.80436417,14.90521716
12.47517042,-0.547112274,-1.650467834,15.21256531,15.31161387
12.48522242,-1.132844238,-1.621428223,15.44967224,15.57577407
12.49527442,-1.430126038,-1.434317322,15.90607315,16.03451558
12.50532642,-1.551224213,-1.166973267,16.69672897,16.80919039
12.51537842,-1.684147797,-0.960552521,17.88211395,17.98691231
12.52543042,-1.927691345,-0.921184387,19.8747702,19.98927375
12.53548242,-2.360591125,-1.228944397,21.21014328,21.37645604
12.54553442,-2.390379181,-0.761017456,22.5303978,22.66962472
12.55558642,-2.071991272,-0.097896423,22.8103157,22.904437
12.56563842,-1.714833984,-0.067958679,21.12676666,21.19635685
12.57569042,-1.67561554,-0.219892731,18.68624176,18.76250707
12.58574242,-1.845063171,-0.18486557,16.99146606,17.09234777
12.59579442,-1.95643158,-0.156125336,16.29676071,16.41451825
12.60584642,-1.980232086,-0.233065338,16.15769989,16.28026119
12.61589842,-1.93412796,-0.406554565,15.86490875,15.987541
12.62595042,-1.809287567,-0.579594727,15.267052,15.38480836
12.63600242,-1.548230438,-0.772543488,14.64030533,14.74219729
12.64605442,-1.278790741,-0.921034698,13.9346727,14.02350576
12.65610642,-0.967887268,-0.952169952,13.18832474,13.25802937
12.66615842,-0.730780334,-1.000519409,12.65094223,12.71146798
12.67621042,-0.400567017,-0.960103455,12.37446716,12.41811943
12.68626242,-0.024099884,-0.8307724,12.19588852,12.22417524
12.69631442,0.158670044,-0.709524536,12.21639587,12.23801166
12.70636642,0.019609222,-0.671952667,12.34557724,12.36386599
12.71641842,-0.306712189,-0.652044067,12.23031693,12.25152586
12.72647042,-0.744701385,-0.656983795,11.62991547,11.67223807
12.73652242,-1.213227081,-0.625399475,11.15001343,11.23324726
12.74657442,-1.368454285,-0.4352948,10.80632813,10.90132452
12.75662642,-1.523831177,-0.371976471,10.23975632,10.35920062
12.76667842,-1.547332306,-0.325722656,9.746232605,9.873671177
12.77673042,-1.398392029,-0.284408569,9.438173218,9.545444054
12.78678242,-1.115929413,-0.300275574,9.220376129,9.292513107
12.79683442,-0.719254303,-0.327818298,9.133406982,9.16754682
12.80688642,-0.275876312,-0.33694931,9.197623444,9.207926997
12.81693842,-0.004790039,-0.296683044,9.311386871,9.316113419
12.82699042,0.003293152,-0.24803421,9.54085968,9.544083783
12.83704242,-0.292042694,-0.317190399,9.723479919,9.733034492
12.84709442,-0.60728714,-0.241298218,9.778565369,9.800375665
12.85714642,-0.84828598,-0.08427475,9.671537933,9.7090338
12.86719842,-1.219514008,-0.076790314,9.49520462,9.573506252
12.87725042,-1.468596039,-0.051193542,9.289382629,9.404893659
12.88730242,-1.523082733,-0.043858795,8.975934448,9.104345327
12.89735442,-1.483415222,-0.049846344,8.701555023,8.827234289
12.90740642,-1.300196228,-0.051043854,8.609346771,8.707121656
12.91745842,-1.135688324,-0.028141479,8.660540314,8.734731732
12.92751042,-1.01099762,0.00119751,8.779243469,8.837263916
12.93756242,-0.885558472,0.033380585,9.090296631,9.133390439
12.94761442,-0.782572632,0.00703537,9.451794891,9.484139185
12.95766642,-0.649649048,-0.016316071,9.75506424,9.776685963
12.96771842,-0.506247253,-0.029638367,10.00743942,10.02027986
12.97777042,-0.439785461,-0.089962921,10.19499939,10.20487712
12.98782242,-0.364941101,-0.134719849,10.32941986,10.33674253
12.99787442,-0.307310944,-0.156125336,10.35022659,10.35596474
13.00792642,-0.196990356,-0.102237396,10.20263351,10.2050472
13.01797854,-0.090262299,-0.05029541,9.959838409,9.960374393
13.02803054,-0.0398172,-0.009729767,9.757159882,9.757245976
13.03808254,-0.058977356,-0.017214203,9.63681015,9.637005994
13.04813454,-0.108973389,-0.050445099,9.638905792,9.639653769
13.05818654,-0.110470276,-0.086220703,9.770631866,9.771636749
13.06823854,-0.05733078,-0.144299927,9.860145721,9.861368208
13.07829054,-0.054786072,-0.209264832,9.967023468,9.969370597
13.08834254,-0.109871521,-0.278121643,10.06267456,10.0671169
13.09839454,-0.143701172,-0.323177948,10.13557297,10.14174213
13.10844654,-0.198187866,-0.329614563,10.20173538,10.20898276
13.11849854,-0.24339386,-0.254321136,10.09560608,10.10174153
13.12855054,-0.218545532,-0.189206543,9.925559692,9.929768198
13.13860254,-0.192649384,-0.153430939,9.803114319,9.806207482
13.14865454,-0.158969421,-0.125738525,9.66495163,9.667076676
13.15870654,-0.11930191,-0.123792572,9.522298279,9.52385017
13.16875854,-0.063617706,-0.148341522,9.438771973,9.440151946
13.17881054,0.007334747,-0.187110901,9.405990143,9.407853892
13.18886254,0.086370392,-0.237106934,9.483828278,9.487184953
13.19891454,0.107925568,-0.283809814,9.648934937,9.653711273
13.20896654,0.065413971,-0.295934601,9.794132996,9.798821226
13.21901854,-0.020207977,-0.307011566,9.877060547,9.881851522
13.22907054,-0.14160553,-0.294138336,9.940678253,9.946037081
13.23912254,-0.28321106,-0.216000824,9.98318985,9.989541753
13.24917454,-0.467328186,-0.131576385,9.929750977,9.941612668
13.25922654,-0.57690033,-0.067659302,9.699679413,9.717055752
13.26927854,-0.588426361,-0.052989807,9.527537384,9.545837947
13.27933054,-0.48678772,-0.042212219,9.425599365,9.438255535
13.28938254,-0.358205109,-0.074694672,9.349557495,9.356714998
13.29943454,-0.2574646,-0.122145996,9.300908661,9.305273214
13.30948654,-0.187110901,-0.195792847,9.365125122,9.369040179
13.31953854,-0.14624588,-0.259111176,9.543554077,9.548190974
13.32959054,-0.127085724,-0.290994873,9.697134705,9.702332208
13.33964254,-0.18726059,-0.264649658,9.77841568,9.78378859
13.34969454,-0.373772736,-0.241896973,9.76673996,9.776882409
13.35974654,-0.596509552,-0.238005066,9.75730957,9.778423191
13.36979854,-0.738414459,-0.193397827,9.803713074,9.833384395
13.37985054,-0.811761932,-0.150437164,9.81,9.844678196
13.38990254,-0.796942749,-0.136665802,9.678722992,9.71243914
13.39995454,-0.706979828,-0.137264557,9.530531158,9.557702977
13.41000654,-0.566122742,-0.157771912,9.44610672,9.464371036
13.42005854,-0.432750092,-0.188009033,9.391021271,9.402866613
13.43011054,-0.350121918,-0.226029968,9.461674347,9.47084771
13.44016254,-0.311502228,-0.264799347,9.674382019,9.683017081
13.45021454,-0.387693787,-0.272283783,9.807305603,9.818741677
13.46026654,-0.529449005,-0.264799347,9.830357666,9.848165656
13.47031854,-0.615370331,-0.252075806,9.823471985,9.845954738
13.48037054,-0.631237335,-0.202977905,9.785600739,9.808039683
13.49042254,-0.610430603,-0.14160553,9.744735718,9.764863125
13.50047454,-0.579594727,-0.107476501,9.692644043,9.710552497
13.51052654,-0.526155853,-0.098644867,9.631720734,9.64658567
13.52057854,-0.499810638,-0.09714798,9.630523224,9.643973557
13.53063054,-0.448018341,-0.091609497,9.682016144,9.692809156
13.54068254,-0.404159546,-0.105081482,9.782756653,9.791665578
13.55073454,-0.397423553,-0.086520081,9.8790065,9.887375822
13.56078654,-0.404309235,-0.065713348,9.880802765,9.889289534
13.57083854,-0.456101532,-0.068856812,9.841135254,9.851939553
13.58089054,-0.484841766,-0.04445755,9.832453308,9.844500296
13.59094254,-0.467477875,-0.010328522,9.823921051,9.835042809
13.60099454,-0.434995422,0.03622467,9.873018951,9.882663429
13.61104654,-0.462687836,0.024099884,9.915231171,9.926050071
13.62109854,-0.504151611,-0.014819183,9.892478485,9.905327811
13.63115054,-0.487835541,-0.045056305,9.923763428,9.93584894
13.64120254,-0.46104126,-0.046702881,9.9785495,9.989303795
13.65125454,-0.440084839,-0.06197113,9.937983856,9.947916275
13.66130654,-0.41418869,-0.083975372,9.8498172,9.858879399
13.67135854,-0.377814331,-0.089064789,9.795480194,9.803168286
13.68141054,-0.344882813,-0.116757202,9.738299103,9.745103684
13.69146254,-0.326171722,-0.151335297,9.753717041,9.760342539
13.70151454,-0.332907715,-0.187410278,9.731413422,9.738909453
13.71156654,-0.343834991,-0.206420746,9.674082642,9.682391594
13.72161854,-0.304766235,-0.219144287,9.652228088,9.659524509
13.73167054,-0.293539581,-0.247585144,9.655072174,9.662705759
13.74172254,-0.28321106,-0.265547791,9.682614899,9.690395008
13.75177454,-0.262703705,-0.27617569,9.673184509,9.680691339
13.76182654,-0.207169189,-0.302371216,9.694739685,9.701666093
13.77187854,-0.18950592,-0.343385925,9.753567352,9.761449815
13.78193054,-0.236807556,-0.360151062,9.889035645,9.898424753
13.79198254,-0.278870087,-0.349373474,9.955796814,9.96582764
13.80203454,-0.285905457,-0.327967987,9.901459808,9.911014644
13.81208654,-0.321381683,-0.335003357,9.752519531,9.763562395
13.82213854,-0.362097015,-0.305065613,9.652677155,9.664282463
13.83219054,-0.344733124,-0.300874329,9.620643768,9.631518717
13.84224254,-0.311951294,-0.272134094,9.664502563,9.673364481
13.85229454,-0.280366974,-0.237705688,9.769733734,9.776645993
13.86234654,-0.257165222,-0.214054871,9.873617706,9.879285402
13.87239854,-0.238454132,-0.212108917,9.975705414,9.980809039
13.88245054,-0.236208801,-0.236508179,10.05668701,10.06224052
13.89250254,-0.20821701,-0.258362732,10.08393036,10.08938834
13.90255454,-0.206720123,-0.229921875,10.09081604,10.09555177
13.91260654,-0.249082031,-0.207618256,10.05653732,10.06176377
13.92265854,-0.328417053,-0.1977388,9.981393585,9.98875249
13.93271054,-0.401016083,-0.192050629,9.90714798,9.917120471
13.94276254,-0.496367798,-0.169447632,9.847571869,9.861529557
13.95281454,-0.591270447,-0.173638916,9.830207977,9.849504561
13.96286654,-0.70084259,-0.178428955,9.830507355,9.8570732
13.97291854,-0.862656097,-0.17199234,9.804012451,9.84339459
13.98297054,-1.02387085,-0.1579216,9.815388794,9.869909216
13.99302254,-1.124012604,-0.132474518,9.838590546,9.903475034
14.00307454,-1.110540619,-0.110470276,9.92002121,9.982601111
14.01312654,-0.975072327,-0.133672028,10.10698242,10.15478842
14.02317808,-0.789009247,-0.230820007,10.25682083,10.28971268
14.03323008,-0.623453522,-0.362396393,10.39752823,10.42250539
14.04328208,-0.463136902,-0.432750092,10.46039749,10.47958416
14.05333408,-0.305664368,-0.450862427,10.48135391,10.49549844
14.06338708,-0.165256348,-0.351768494,10.43779449,10.44502775
14.07343808,-0.097746735,-0.177979889,10.5690715,10.57102189
14.08349008,-0.20357666,-0.115709381,10.88641159,10.88892967
14.09354208,-0.414338379,-0.096698914,11.22500748,11.23306814
14.10359408,-0.613274689,0.000299377,11.53680908,11.55309784
14.11364608,-0.775387573,0.062420197,11.8656752,11.89114671
14.12369808,-0.891995087,0.066910858,12.01641174,12.04965906
14.13375108,-0.867895203,0.14624588,11.96042816,11.99276748
14.14380308,-0.625249786,0.232017517,11.85010757,11.86885921
14.15385508,-0.228574677,0.224383392,11.8245108,11.82884821
14.16390708,0.120349731,0.12049942,12.06371338,12.06491544
14.17395908,0.359552307,-0.045205994,12.53089188,12.53613069
14.18401108,0.492924957,-0.266146545,13.18907318,13.20096437
14.19406308,0.502355347,-0.523760834,13.98062714,13.99945075
14.20411508,0.332608337,-0.814306641,14.72592728,14.75217468
14.21416708,0.083825684,-1.112486572,15.20029083,15.2411776
14.22421908,-0.029638367,-1.240021362,15.29549286,15.34570406
14.23427108,-0.12633728,-1.437460785,15.24250305,15.31065491
14.24432308,-0.155077515,-1.687740326,15.35282364,15.44609045
14.25437508,-0.066461792,-1.984273682,15.69471268,15.8197903
14.26442708,0.20597168,-2.100581818,16.3034967,16.4395521
14.27447908,0.827479248,-1.963766327,17.33440292,17.46489693
14.28453108,1.21457428,-1.897603912,18.26546677,18.40389544
14.29458308,1.174308014,-1.921703796,18.52008728,18.65651569
14.30463508,0.795146484,-1.882335663,18.22235641,18.3365678
14.31468708,0.179476776,-1.573228455,17.5351355,17.6064828
14.32473908,-0.539178772,-1.308429108,16.60302383,16.66322601
14.33479108,-0.840202789,-0.672252045,16.04678055,16.08281783
14.34484308,-0.592467957,0.134869537,15.6930661,15.70482511
14.35489508,-0.171543274,0.621058502,15.92628113,15.939309
14.36494708,0.308358765,0.818198547,16.75825104,16.78104621
14.37499908,0.756077728,0.957558746,17.73227554,17.77419951
14.38505108,1.152154083,0.970431976,18.62651596,18.68732977
14.39510308,1.526226196,0.731079712,19.73645782,19.80887709
14.40515508,1.668430481,0.003143463,21.17601425,21.24163953
14.41520708,1.396595764,-0.929866333,21.79228271,21.85677737
14.42525908,0.487236786,-2.22437439,20.08553192,20.21419881
14.43531108,-0.747395782,-3.784430237,16.68235886,17.12254682
14.44536308,-1.782642975,-4.652924194,12.65483414,13.60045391
14.45541508,-2.173480225,-4.984185333,8.792565765,10.33805264
14.46546708,-1.922751617,-5.020559692,4.80440918,7.210086059
14.47551908,-1.506766663,-4.726271667,1.983525238,5.342505219
14.48557108,-1.11622879,-4.140539703,0.556842041,4.324362243
14.49562308,0.392334137,-2.885100403,-0.342338104,2.931710386
14.50567508,-0.152981873,-2.750979309,-0.896485748,2.897408723
14.51572708,0.115709381,-2.353555756,-0.403411102,2.39068063
14.52577908,0.374970245,-1.910926208,0.6728508,2.060332463
14.53583108,0.96654007,-1.42862915,1.407672729,2.226370021
14.54588308,1.701511688,-0.907413025,1.911075897,2.714912799
14.55593508,2.475552063,-0.180374908,2.343825989,3.413856088
14.56598708,3.046764221,0.470022583,2.353106689,3.878247612
14.57603908,3.268602905,0.993484039,1.984573059,3.950861389
14.58609108,3.056943054,1.199605408,1.480421448,3.602166242
14.59614308,2.410437469,1.051114197,1.000669098,2.813607736
14.60619508,1.667831726,0.747844849,0.596359863,1.922649128
14.61624708,1.116528168,0.534239044,0.356708221,1.288133247
14.62629908,0.741258545,0.418978729,0.351918182,0.921332629
14.63635108,0.566871185,0.271235962,0.426612854,0.75954619
14.64640308,0.456849976,0.19893631,0.655636597,0.823496753
14.65645508,0.319884796,0.086220703,1.00980011,1.062758935
14.66650708,0.17902771,-0.078586578,1.451980591,1.465085119
14.67655908,0.095651093,-0.03622467,2.116748199,2.119217851
14.68661108,0.10418335,0.08307724,2.83166153,2.834795057
14.69666308,0.147144012,0.194894714,3.379372559,3.388184499
14.70671508,0.057630157,0.305065613,3.711232452,3.724195561
14.71676708,-0.148191833,0.30072464,3.787723389,3.802531341
14.72681908,-0.404758301,0.276924133,3.848646698,3.879767733
14.73687108,-0.681532745,0.270038452,4.043541412,4.109456753
14.74692308,-0.814606018,0.290695496,4.192930756,4.281209544
14.75697508,-0.793050842,0.336649933,4.203708344,4.291086885
14.76702708,-0.765807495,0.344583435,4.169579315,4.253303484
14.77707908,-0.716410217,0.356109467,4.20176239,4.277249669
14.78713108,-0.624052277,0.335452423,4.225413208,4.284400349
14.79718308,-0.545465698,0.295934601,4.272265778,4.317101457
14.80723508,-0.500259705,0.276624756,4.380490723,4.41763285
14.81728708,-0.456400909,0.27617569,4.577481079,4.608460462
14.82733908,-0.293389893,0.374670868,4.726571045,4.750466265
14.83739108,-0.053139496,0.511636047,4.788841553,4.81638855
14.84744308,0.151484985,0.686322784,4.859195251,4.90976223
14.85749508,0.239651642,0.800834656,4.948709106,5.018813692
14.86754708,0.182171173,0.838556213,4.976102142,5.049550019
14.87759908,0.025896149,0.830922089,4.932542725,5.002107542
14.88765108,-0.218395844,0.790356445,4.86638031,4.934978964
14.89770308,-0.409248962,0.715512085,4.631818085,4.704591484
14.90775508,-0.51477951,0.601299591,4.342469788,4.414023448
14.91780708,-0.593815155,0.446222076,4.060456238,4.127836654
14.92785908,-0.628692627,0.254321136,3.741020508,3.801995279
14.93791108,-0.612675934,0.029638367,3.56289093,3.615306628
14.94796308,-0.493523712,-0.384250946,3.485950928,3.541619448
14.95801508,-0.335602112,-0.926423492,3.801045685,3.926682768
14.96806708,-0.17318985,-1.341210938,4.573140106,4.768904689
14.97811908,-0.063468018,-1.729503479,5.091961212,5.378036766
14.98817108,-0.161364441,-2.262694702,5.231770477,5.702389685
14.99822308,-0.418978729,-2.760409698,5.17997818,5.884520271
15.00827508,-0.69036438,-3.05514679,5.171894989,6.046405764
15.01832767,-0.677790527,-2.97431488,5.418731689,6.218408328
15.02837967,-0.573756866,-2.578986969,6.084247742,6.633132089
15.03843167,-0.619860992,-2.097288666,6.784641266,7.128408273
15.04848367,-0.752485199,-1.646875305,7.414980469,7.632847935
15.05853567,-0.789907379,-1.340761871,8.006250916,8.156080541
15.06858767,-0.610131226,-1.225950623,8.521479492,8.630806902
15.07863967,-0.173788605,-1.401535492,9.176217957,9.284259809
15.08869167,1.171164551,-1.50242569,10.22239243,10.39837565
15.09874367,2.955454102,-1.228495331,11.00900665,11.46482173
15.10879567,2.834655304,-0.790057068,11.12935638,11.51182151
15.11884767,1.499880981,-0.363444214,11.35643417,11.46081724
15.12889967,0.73018158,0.154179382,12.30156876,12.32418477
15.13895167,0.23635849,0.622705078,13.25418777,13.27091257
15.14900367,-0.614023132,0.891246643,14.21653656,14.25767361
15.15905567,-1.443598022,0.987646179,15.29564255,15.39532725
15.16910767,-2.046993256,1.036444702,16.79028442,16.94632851
15.17915967,-2.089654541,1.09991272,18.64612518,18.79506447
15.18921167,-1.473835144,1.062939606,19.9903299,20.07275068
15.19926367,-0.29952713,1.120569763,20.72649902,20.75892952
15.20931567,1.209335175,1.321452026,21.01554794,21.09175152
15.21936767,2.695295105,1.655856628,20.85208786,21.09066251
15.22941967,3.726351013,1.894759827,20.29359924,20.71970021
15.23947167,3.958817596,1.746268616,19.55069412,20.02376916
15.24952367,3.394191742,1.147064667,18.88263336,19.21952491
15.25957567,2.481689301,0.419876862,18.06757828,18.24205206
15.26962767,1.642085266,-0.046253815,17.05298813,17.13192889
15.27967967,0.999920654,-0.327818298,16.12401993,16.15832061
15.28973167,0.519419861,-0.633482666,15.26690231,15.28886534
15.29978367,0.135468292,-0.961450653,14.61740295,14.64961461
15.30983567,-0.019010468,-1.170865173,14.18719757,14.23544385
15.31988767,0.000748444,-1.137185211,13.88168289,13.92818404
15.32993967,0.178129578,-0.783171387,13.466147,13.49007793
15.33999167,0.350121918,-0.427510986,12.94687683,12.95866392
15.35004367,0.51013916,-0.207019501,12.54196884,12.55404642
15.36009567,0.811612244,-0.035326538,12.29064148,12.31746039
15.37014767,1.119222565,0.054486694,12.22687408,12.27811377
15.38019967,1.310674438,0.116607513,12.1695433,12.24047585
15.39025167,1.303339691,0.197888489,11.9068396,11.97959446
15.40030367,1.154998169,0.308209076,11.69488037,11.7558173
15.41035567,1.02267334,0.381556549,11.39310791,11.44527649
15.42040767,0.928519135,0.330961761,11.03639969,11.080334
15.43045967,0.910855865,0.197289734,10.69286407,10.73340225
15.44051167,1.012793884,0.004939728,10.50919601,10.55788694
15.45056367,1.0683284,-0.255368958,10.38929535,10.44720043
15.46061567,0.976269836,-0.481249237,10.39154068,10.44838846
15.47066767,0.826581116,-0.614172821,10.53449341,10.58470576
15.48071967,0.685424652,-0.663869476,10.64331711,10.68600621
15.49077167,0.539178772,-0.616867218,10.69451065,10.72584714
15.50082367,0.320483551,-0.523611145,10.64631088,10.66399614
15.51087567,-0.108224945,-0.631536713,10.38375687,10.403507
15.52092767,-0.636775818,-0.878223724,10.0966539,10.15476146
15.53097967,-1.119072876,-1.161434784,9.797875214,9.929733811
15.54103167,-1.389710083,-1.407822418,9.500593414,9.704356408
15.55108367,-1.434766388,-1.617236938,9.255552979,9.504697304
15.56113567,-1.226998444,-1.620829468,9.098379822,9.322721101
15.57118767,-0.694705353,-1.307830353,9.040001221,9.16049441
15.58123967,-0.186961212,-0.956660614,9.049880676,9.102224689
15.59129167,0.075892181,-0.75233551,9.253307648,9.284151591
15.60134367,0.144000549,-0.654888153,9.572893066,9.596348072
15.61139567,0.035476227,-0.608035583,9.888736267,9.907475501
15.62144767,-0.222587128,-0.61072998,10.08228378,10.10321644
15.63149967,-0.445024567,-0.613873444,10.22882904,10.25689188
15.64155167,-0.646056519,-0.610879669,10.35606445,10.39416346
15.65160367,-0.758772125,-0.584384766,10.4271666,10.47105744
15.66165567,-0.811911621,-0.575553131,10.41010208,10.45756603
15.67170767,-0.814905396,-0.576451263,10.34917877,10.39720482
15.68175967,-0.765508118,-0.572858734,10.30606842,10.35032444
15.69181167,-0.70323761,-0.577349396,10.27792694,10.31812278
15.70186367,-0.671353912,-0.569565582,10.23062531,10.26843782
15.71191567,-0.634081421,-0.559686127,10.07000931,10.10546363
15.72196767,-0.638572083,-0.587079163,9.91762619,9.95548821
15.73201967,-0.65997757,-0.621208191,9.802365875,9.844178318
15.74207167,-0.646954651,-0.624950409,9.721234589,9.762761662
15.75212367,-0.61896286,-0.626447296,9.727222137,9.767005772
15.76217567,-0.603395233,-0.637823639,9.721833344,9.761400943
15.77222767,-0.566122742,-0.647703094,9.632319489,9.670656285
15.78227967,-0.503253479,-0.630788269,9.559421082,9.593419063
15.79233167,-0.442030792,-0.633782043,9.503138123,9.534500778
15.80238367,-0.398321686,-0.642164612,9.374405823,9.404813666
15.81243567,-0.322728882,-0.677790527,9.320517883,9.350700912
15.82248767,-0.168848877,-0.643362122,9.269923096,9.293755913
15.83253967,0.113314362,-0.5043013,9.176816711,9.191361428
15.84259167,0.282163239,-0.387993164,9.157357178,9.169915227
15.85264367,0.207618256,-0.336200867,9.253307648,9.261740592
15.86269567,-0.068707123,-0.392932892,9.426796875,9.435232708
15.87274767,-0.435145111,-0.467328186,9.58651474,9.607757895
15.88279967,-0.775387573,-0.498014374,9.714498596,9.758110841
15.89285167,-0.988095245,-0.458496552,9.761201477,9.821792381
15.90290367,-1.132245483,-0.372275848,9.7701828,9.84261353
15.91295567,-1.206491089,-0.32766861,9.760003967,9.83974923
15.92300767,-1.157842255,-0.286803589,9.683063965,9.756258644
15.93305967,-1.013093262,-0.250279541,9.640702057,9.697016755
15.94311167,-0.770447845,-0.185164948,9.597591705,9.630246232
15.95316367,-0.572559357,-0.195194092,9.683812408,9.702687654
15.96321567,-0.461939392,-0.266595612,9.809401245,9.823889963
15.97326767,-0.407602386,-0.354163513,9.875713348,9.890464379
15.98331967,-0.413290558,-0.395028534,9.964628448,9.981015817
15.99337167,-0.443677368,-0.452059937,10.06761429,10.08752027
16.00342367,-0.511935425,-0.502654724,10.15188904,10.17720938
16.01347567,-0.606688385,-0.531844025,10.14006363,10.17210987
16.02352754,-0.657283173,-0.546513519,10.07285339,10.10905899
16.03357954,-0.666264496,-0.529898071,9.974208527,10.01047132
16.04363154,-0.592767334,-0.504001923,9.847122803,9.877814462
16.05368354,-0.497565308,-0.495469666,9.70701416,9.732378195
16.06373554,-0.428109741,-0.48678772,9.59355011,9.615427393
16.07378754,-0.405057678,-0.480500793,9.518556061,9.539279963
16.08383954,-0.393531647,-0.471968536,9.494306488,9.514172436
16.09389154,-0.37437149,-0.470621338,9.500743103,9.519756193
16.10394354,-0.344284058,-0.500708771,9.549242249,9.568556229
16.11399554,-0.291144562,-0.510887604,9.585616608,9.603635616
16.12404754,-0.283959503,-0.485440521,9.632918243,9.649321188
16.13409954,-0.281265106,-0.456251221,9.699679413,9.714476617
16.14415154,-0.232915649,-0.440982971,9.843829651,9.85645463
16.15420354,-0.148042145,-0.404309235,9.968819733,9.978113514
16.16425554,-0.08427475,-0.363743591,9.955347748,9.962347134
16.17430754,-0.036973114,-0.347726898,9.949509888,9.955653068
16.18435954,0.038470001,-0.338446198,9.897268524,9.903128294
16.19441154,0.174237671,-0.33230896,9.810449066,9.817621855
16.20446354,0.287252655,-0.347726898,9.925559692,9.935802096
16.21451554,0.334703979,-0.402213593,10.11371841,10.12724556
16.22456754,0.255368958,-0.425565033,10.25756927,10.26956895
16.23461954,0.137414246,-0.40954834,10.18781433,10.19696883
16.24467154,-0.001347198,-0.414787445,9.968520355,9.977146311
16.25472354,-0.076341248,-0.36853363,9.867929535,9.875103965
16.26477554,-0.082029419,-0.2667453,9.830507355,9.834467791
16.27482754,-0.140108643,-0.197439423,9.820029144,9.823013038
16.28487954,-0.314346313,-0.186661835,9.762249298,9.769092466
16.29493154,-0.482596436,-0.183218994,9.707163849,9.720879513
16.30498354,-0.623004456,-0.181871796,9.643097076,9.664912474
16.31503554,-0.739911346,-0.178428955,9.535470886,9.565799011
16.32508754,-0.775836639,-0.180374908,9.479038239,9.512445717
16.33513954,-0.741707611,-0.165106659,9.442813568,9.47333724
16.34519154,-0.688867493,-0.135617981,9.414223022,9.440366824
16.35524354,-0.627644806,-0.118553467,9.438173218,9.459762503
16.36529554,-0.597108307,-0.117655334,9.442514191,9.462106285
16.37534754,-0.551602936,-0.125289459,9.461075592,9.477969962
16.38539954,-0.468226318,-0.148042145,9.529633026,9.5422774
16.39545154,-0.398022308,-0.144449615,9.618697815,9.62801304
16.40550354,-0.379311218,-0.165705414,9.63920517,9.648088494
16.41555554,-0.37437149,-0.201331329,9.625433807,9.634815219
16.42560754,-0.386496277,-0.205372925,9.67423233,9.684127663
16.43565954,-0.365539856,-0.222886505,9.81119751,9.820534321
16.44571154,-0.312849426,-0.208815765,9.883347473,9.890502316
16.45576354,-0.298928375,-0.196391602,9.870773621,9.877251627
16.46581554,-0.310753784,-0.178129578,9.822723541,9.829252048
16.47586754,-0.348774719,-0.173040161,9.758207703,9.765971752
16.48591954,-0.42002655,-0.148940277,9.679022369,9.689276523
16.49597154,-0.486638031,-0.136665802,9.675130463,9.688325118
16.50602354,-0.532592468,-0.138611755,9.783505096,9.798971371
16.51607554,-0.568817139,-0.175584869,9.820627899,9.838654142
16.52612754,-0.589474182,-0.218994598,9.786798248,9.806980086
16.53617954,-0.567919006,-0.237406311,9.799671478,9.81898441
16.54623154,-0.507893829,-0.233664093,9.815089417,9.830998693
16.55628354,-0.468825073,-0.224383392,9.81583786,9.82958889
16.56633554,-0.451012115,-0.220192108,9.821226654,9.834042378
16.57638754,-0.430504761,-0.243094482,9.888885956,9.90123703
16.58643954,-0.395926666,-0.280217285,9.995464325,10.00722672
16.59649154,-0.379760284,-0.30416748,10.00594254,10.01776531
16.60654354,-0.365839233,-0.304017792,9.935738525,9.947118437
16.61659554,-0.391136627,-0.313897247,9.858050079,9.870798889
16.62664754,-0.371078339,-0.303119659,9.852810974,9.86445461
16.63669954,-0.380359039,-0.312550049,9.860445099,9.872726983
16.64675154,-0.409698029,-0.293838959,9.752818909,9.765842026
16.65680354,-0.419128418,-0.273630981,9.66959198,9.68253849
16.66685554,-0.403111725,-0.245339813,9.60522583,9.616811006
16.67690754,-0.344433746,-0.239951019,9.567653961,9.576858223
16.68695954,-0.31120285,-0.216749268,9.589957581,9.597453509
16.69701154,-0.270936584,-0.207468567,9.716145172,9.72213592
16.70706354,-0.259410553,-0.226928101,9.879605255,9.885615317
16.71711554,-0.328716431,-0.23171814,9.928254089,9.936396583
16.72716754,-0.415535889,-0.242046661,9.913734283,9.925390879
16.73721954,-0.471070404,-0.23396347,9.864636383,9.878648551
16.74727154,-0.517024841,-0.213156738,9.830657043,9.846551091
16.75732354,-0.530496826,-0.182620239,9.820927277,9.836940053
16.76737554,-0.519120483,-0.177680511,9.767787781,9.78318632
16.77742754,-0.490829315,-0.194295959,9.706116028,9.720460518
16.78747954,-0.45280838,-0.196391602,9.680818634,9.693392312
16.79753154,-0.410147095,-0.217946777,9.634714508,9.645903021
16.80758354,-0.355510712,-0.232316895,9.601483612,9.610871269
16.81763554,-0.345631256,-0.2574646,9.636510773,9.64614373
16.82768754,-0.361348572,-0.276774445,9.658964081,9.669682725
16.83773954,-0.357306976,-0.28545639,9.733808441,9.744546187
16.84779154,-0.372275848,-0.295335846,9.822274475,9.833762679
16.85784354,-0.428708496,-0.266894989,9.807904358,9.82089669
16.86789554,-0.46223877,-0.242795105,9.795180817,9.809086674
16.87794754,-0.465531921,-0.22348526,9.793683929,9.807288644
16.88799954,-0.450413361,-0.217946777,9.76673996,9.779549194
16.89805154,-0.408201141,-0.198786621,9.706265717,9.716879049
16.90810354,-0.368683319,-0.188158722,9.691895599,9.700730457
16.91815554,-0.364641724,-0.189356232,9.734107819,9.742775497
16.92820754,-0.35925293,-0.185464325,9.792636108,9.800978606
16.93825954,-0.326620789,-0.197888489,9.902208252,9.90956958
16.94831154,-0.331560516,-0.198487244,9.902507629,9.910044748
16.95836354,-0.331261139,-0.211959229,9.900262299,9.908070157
16.96841554,-0.344284058,-0.222587128,9.899813232,9.90829847
16.97846754,-0.340841217,-0.197439423,9.865384827,9.873245304
16.98851954,-0.309256897,-0.203726349,9.892029419,9.89895905
16.99857054,-0.27378067,-0.234262848,9.955347748,9.961866478
17.00862354,-0.273331604,-0.23516098,9.91762619,9.92417856
17.01867542,-0.32527359,-0.252075806,9.823771362,9.832386735
17.02872742,-0.379760284,-0.258213043,9.727521515,9.73835544
17.03877942,-0.386645966,-0.258961487,9.669741669,9.680932811
17.04883142,-0.368084564,-0.25387207,9.677525482,9.687849954
17.05888342,-0.348325653,-0.260308685,9.73276062,9.742469947
17.06893442,-0.351319427,-0.262254639,9.711804199,9.721694484
17.07898742,-0.348774719,-0.274828491,9.658515015,9.668716916
17.08903842,-0.314046936,-0.302520905,9.609417114,9.619305674
17.09909142,-0.309107208,-0.297581177,9.568402405,9.578017874
17.10914342,-0.308658142,-0.284857635,9.606722717,9.615900118
17.11919442,-0.258512421,-0.271385651,9.704319763,9.71155502
17.12924642,-0.282462616,-0.263601837,9.760602722,9.76824634
17.13929942,-0.347577209,-0.276624756,9.759105835,9.769210709
17.14935042,-0.376167755,-0.299078064,9.756411438,9.768240067
17.15940242,-0.359552307,-0.29488678,9.743238831,9.754329243
17.16945542,-0.307161255,-0.272882538,9.805808716,9.814412743
17.17950642,-0.288001099,-0.247884521,9.884694672,9.89199576
17.18955842,-0.291593628,-0.236657867,9.865833893,9.872978891
17.19961042,-0.341439972,-0.248333588,9.848170624,9.857216415
17.20966242,-0.380209351,-0.267344055,9.802814941,9.813827631
17.21971442,-0.387544098,-0.277223511,9.78889389,9.800484014
17.22976642,-0.389490051,-0.281414795,9.863887939,9.875585151
17.23981842,-0.377664642,-0.277971954,9.887987823,9.89910108
17.24987042,-0.385448456,-0.258811798,9.863738251,9.874658796
17.25992242,-0.393082581,-0.277223511,9.814041595,9.825822064
17.26997442,-0.374521179,-0.29488678,9.761351166,9.772983214
17.28002642,-0.341889038,-0.302071838,9.69997879,9.710701522
17.29007842,-0.289947052,-0.289198608,9.71868988,9.727314024
17.30013042,-0.332458649,-0.274678802,9.720635834,9.730197234
17.31018242,-0.373623047,-0.276325378,9.699529724,9.710655321
17.32023442,-0.386047211,-0.260757751,9.685908051,9.697104816
17.33028642,-0.390388184,-0.252674561,9.667496338,9.678674125
17.34033842,-0.355361023,-0.235610046,9.678872681,9.688259385
17.35039042,-0.336649933,-0.239202576,9.723030853,9.731797369
17.36044242,-0.365988922,-0.25626709,9.751920776,9.762150354
17.37049442,-0.405357056,-0.263751526,9.725425873,9.73744256
17.38054642,-0.402063904,-0.272134094,9.744885406,9.756972068
17.39059842,-0.365240479,-0.270936584,9.725425873,9.736052365
17.40065042,-0.300425262,-0.293988647,9.743089142,9.752152106
17.41070242,-0.225580902,-0.302221527,9.778715057,9.785984507
17.42075442,-0.172142029,-0.292192383,9.794282684,9.800152171
17.43080642,-0.170345764,-0.297431488,9.755363617,9.761383225
17.44085842,-0.204175415,-0.320782928,9.741292877,9.748711515
17.45091042,-0.216000824,-0.338895264,9.746981049,9.755262473
17.46096242,-0.258662109,-0.323028259,9.780062256,9.788813568
17.47101442,-0.315394135,-0.324225769,9.812694397,9.823113923
17.48106642,-0.349074097,-0.348625031,9.867630157,9.879955317
17.49111842,-0.377814331,-0.382754059,9.92466156,9.939222878
17.50117042,-0.360899506,-0.407003632,9.918674011,9.933579141
17.51122242,-0.266296234,-0.385598145,9.88843689,9.899534521
17.52127442,-0.186512146,-0.385149078,9.814939728,9.82426427
17.53132642,-0.143850861,-0.382754059,9.757608948,9.766172542
17.54137842,-0.137563934,-0.38380188,9.772727509,9.781228485
17.55143042,-0.162711639,-0.372275848,9.755213928,9.763670579
17.56148242,-0.185913391,-0.361797638,9.73156311,9.740060672
17.57153442,-0.187410278,-0.345780945,9.741292877,9.749229405
17.58158642,-0.194595337,-0.337098999,9.73515564,9.742933768
17.59163842,-0.229173431,-0.322878571,9.780960388,9.7889712
17.60169042,-0.2468367,-0.30776001,9.81823288,9.826155986
17.61174242,-0.30536499,-0.315992889,9.787097626,9.796957651
17.62179442,-0.331710205,-0.321531372,9.777816925,9.788724018
17.63184642,-0.342487793,-0.311502228,9.792187042,9.80312494
17.64189842,-0.333955536,-0.276774445,9.743987274,9.753636163
17.65195042,-0.345481567,-0.275127869,9.723030853,9.73305614
17.66200242,-0.345032501,-0.266595612,9.749376068,9.759121598
17.67205442,-0.346080322,-0.281265106,9.78664856,9.796804156
17.68210642,-0.351918182,-0.278570709,9.838440857,9.848673339
17.69215842,-0.374670868,-0.273331604,9.845925293,9.856841954
17.70221042,-0.370030518,-0.28904892,9.817783813,9.829005589
17.71226242,-0.339793396,-0.296982422,9.852810974,9.863140585
17.72231442,-0.332758026,-0.302820282,9.835447083,9.845732443
17.73236642,-0.360300751,-0.292342072,9.769134979,9.780147175
17.74241842,-0.39203476,-0.304616547,9.733658752,9.746311877
17.75247042,-0.403111725,-0.295635223,9.681716766,9.694613906
17.76252242,-0.42945694,-0.283959503,9.694290619,9.707952249
17.77257442,-0.443827057,-0.290246429,9.688901825,9.703403734
17.78262642,-0.425415344,-0.279468842,9.673184509,9.686566967
17.79267842,-0.419278107,-0.27378067,9.682764587,9.695704206
17.80273042,-0.37916153,-0.290994873,9.736353149,9.748077458
17.81278242,-0.320034485,-0.307909698,9.85445755,9.864459644
17.82283442,-0.286204834,-0.316142578,9.871372375,9.880579533
17.83288642,-0.271834717,-0.315094757,9.853559418,9.86234313
17.84293842,-0.279319153,-0.347277832,9.857900391,9.867969456
17.85299042,-0.305514679,-0.339643707,9.845326538,9.855919628
17.86304242,-0.390088806,-0.349373474,9.78305603,9.79706162
17.87309442,-0.456999664,-0.360151062,9.754465485,9.771804049
17.88314642,-0.425565033,-0.340092773,9.774074707,9.789244356
17.89319842,-0.3556604,-0.30416748,9.762249298,9.773460162
17.90325042,-0.324225769,-0.29129425,9.779014435,9.788723002
17.91330242,-0.334853668,-0.316891022,9.83110611,9.841910091
17.92335442,-0.374521179,-0.33814682,9.808952179,9.821922023
17.93340642,-0.382903748,-0.348475342,9.769733734,9.783442522
17.94345842,-0.337697754,-0.347876587,9.77602066,9.788035444
17.95351042,-0.338296509,-0.354163513,9.829459534,9.841653878
17.96356242,-0.35805542,-0.332907715,9.837542725,9.849684162
17.97361442,-0.348774719,-0.316741333,9.862241364,9.87348842
17.98366642,-0.35685791,-0.313148804,9.927805023,9.939150986
17.99371842,-0.385298767,-0.31240036,9.952204285,9.964558156
18.00377042,-0.418379974,-0.313298492,9.967322845,9.981018107
18.01382242,-0.445922699,-0.337398376,9.968071289,9.983743283
18.02387404,-0.442479858,-0.341140594,9.856702881,9.872525361
18.03392604,-0.410446472,-0.335751801,9.755363617,9.769765344
18.04397804,-0.388891296,-0.328417053,9.634415131,9.647852046
18.05403004,-0.331560516,-0.30416748,9.521250458,9.531876023
18.06408204,-0.293389893,-0.285007324,9.446256409,9.455107982
18.07413404,-0.275576935,-0.304466858,9.428892517,9.43783115
18.08418604,-0.265996857,-0.290096741,9.446256409,9.454452421
18.09423804,-0.255668335,-0.306412811,9.519603882,9.527964797
18.10429004,-0.250129852,-0.337098999,9.601932678,9.61110357
18.11434204,-0.238005066,-0.338296509,9.692494354,9.701316289
18.12439404,-0.233813782,-0.359103241,9.741143188,9.750563811
18.13444604,-0.211959229,-0.385448456,9.801168365,9.81103453
18.14449804,-0.206420746,-0.401016083,9.804461517,9.814830058
18.15455004,-0.19893631,-0.393531647,9.800569611,9.81048457
18.16460204,-0.212258606,-0.390537872,9.807455292,9.817522745
18.17465404,-0.255219269,-0.382155304,9.782008209,9.792796544
18.18470604,-0.29952713,-0.370778961,9.773625641,9.785241525
18.19475804,-0.307161255,-0.360749817,9.81,9.821435153
18.20481004,-0.301622772,-0.359103241,9.81583786,9.827034361
18.21486204,-0.2667453,-0.343086548,9.786199493,9.795844117
18.22491404,-0.199834442,-0.332758026,9.772128754,9.779834461
18.23496604,-0.178129578,-0.3264711,9.798923035,9.805978083
18.24501804,-0.164358215,-0.336200867,9.819580078,9.826708379
18.25507004,-0.179177399,-0.35102005,9.904004517,9.911842668
18.26512204,-0.212857361,-0.35805542,9.958790588,9.967498278
18.27517404,-0.245190125,-0.355361023,9.929451599,9.938833368
18.28522604,-0.278870087,-0.353714447,9.867031403,9.877306877
18.29527804,-0.300275574,-0.328866119,9.806108093,9.816214865
18.30533004,-0.325123901,-0.316441956,9.792785797,9.803289995
18.31538204,-0.37437149,-0.299227753,9.824669495,9.836352065
18.32543404,-0.402812347,-0.287552032,9.865983582,9.878389342
18.33548604,-0.417481842,-0.290096741,9.850865021,9.863974294
18.34553804,-0.442180481,-0.279319153,9.815388794,9.8293133
18.35559004,-0.460292816,-0.250878296,9.802216187,9.816223895
18.36564204,-0.487835541,-0.229622498,9.803713074,9.818528405
18.37569404,-0.541124725,-0.217048645,9.852810974,9.870046108
18.38574604,-0.538729706,-0.204624481,9.989925842,10.00653383
18.39579804,-0.504001923,-0.181123352,10.33316208,10.34703156
18.40585004,-0.516426086,-0.228874054,10.7867189,10.80149915
18.41590204,-0.704734497,-0.373623047,11.2910202,11.31915996
18.42595404,-0.978515167,-0.403560791,12.15322723,12.19923299
18.43600604,-1.159039764,-0.176782379,12.9287645,12.98181715
18.44605804,-1.254241791,0.090861053,13.30867447,13.36795401
18.45611004,-0.956211548,0.43993515,13.51165237,13.5525877
18.46616204,-0.485739899,0.721649323,13.34445007,13.37277341
18.47621404,-0.137713623,0.831071777,12.99432816,13.02160549
18.48626604,0.236059113,0.827928314,12.7310257,12.76010206
18.49631804,0.661175079,0.736767883,12.43748611,12.47682012
18.50637004,0.810265045,0.636177063,12.35680389,12.39967149
18.51642204,0.622106323,0.63183609,12.33629654,12.36812215
18.52647404,0.39667511,0.661624146,12.10637466,12.13092763
18.53652604,0.216749268,0.59441391,11.54489227,11.5622163
18.54657804,0.076341248,0.478704529,11.33158585,11.34194974
18.55663004,0.101189575,0.321082306,11.38936569,11.39434
18.56668204,0.322429504,0.138462067,11.51585266,11.52119764
18.57673404,0.258213043,-0.133971405,12.05188797,12.05539821
18.58678604,-0.158071289,-0.413739624,12.8729306,12.88054771
18.59683804,-0.53708313,-0.596359863,13.53485413,13.5586275
18.60689004,-0.838107147,-0.652642822,14.22372162,14.26333141
18.61694204,-0.801583099,-0.903970184,15.05584122,15.10423955
18.62699404,-0.357007599,-1.346300354,16.04633148,16.10666735
18.63704604,0.384250946,-1.609453125,17.37332199,17.45194273
18.64709804,1.328188019,-1.485810242,18.42533432,18.53279958
18.65715004,2.102827148,-1.378932495,18.70704849,18.87530133
18.66720204,2.194137268,-1.528022461,18.64792145,18.83863226
18.67725404,2.114203491,-1.971250763,17.78122375,18.01464971
18.68730604,1.56679184,-2.530487823,16.81363586,17.07502727
18.69735804,1.201401672,-2.485730896,17.06346634,17.28537265
18.70741004,1.006057892,-2.820734253,17.25117599,17.50919094
18.71746204,1.04961731,-3.495680695,17.01317093,17.40027198
18.72751404,1.340013428,-3.638633423,17.73931091,18.15815081
18.73756604,2.179018707,-3.671265564,17.47316437,17.98715615
18.74761804,2.993475037,-3.684887238,16.42863647,17.10085914
18.75767004,3.178340607,-3.485202484,15.46404236,16.16740831
18.76772204,2.965932312,-3.21306839,14.03047348,14.69607938
18.77777404,2.771037598,-3.157833252,12.26878693,12.96818001
18.78782604,2.483784943,-3.155138855,10.24230103,11.00130988
18.79787804,1.956581268,-2.924917603,8.532855835,9.230004439
18.80793004,1.604962463,-2.718945923,7.442074127,8.084122634
18.81798204,1.457219696,-2.813249817,6.219416656,6.979900237
18.82803404,1.497785339,-2.387235718,5.685327301,6.345486728
18.83808604,1.462009735,-1.634151764,5.42097702,5.847641944
18.84813804,1.379231873,-1.156944122,4.885241089,5.206378853
18.85819004,1.289568329,-0.901275787,4.271667023,4.552188888
18.86824204,1.177750854,-0.769699402,3.792812805,4.045363175
18.87829404,1.022224274,-0.781824188,3.432362366,3.665692695
18.88834604,0.857866058,-0.771645355,3.308420105,3.503857063
18.89839804,0.871637421,-0.571960602,3.330124969,3.489501832
18.90845004,1.030756531,-0.378862152,3.228636017,3.410291202
18.91850204,1.150357819,-0.227227478,3.040626984,3.258890592
18.92855404,1.058299255,-0.096998291,2.742147675,2.940880795
18.93860604,0.90217392,0.186512146,2.688559113,2.842015951
18.94865804,0.92088501,0.390986938,2.753973083,2.930062752
18.95871004,1.018631744,0.459694061,2.74035141,2.959468721
18.96876204,1.058149567,0.577050018,2.678829346,2.937480875
18.97881404,0.981958008,0.795296173,2.682571564,2.965287124
18.98886604,0.915496216,0.938099213,2.856060791,3.142490524
18.99891804,0.864152985,1.039588165,3.105142822,3.386652607
19.00897004,0.977916412,1.185085602,3.644920349,3.955526861
19.01902204,0.939147034,1.345252533,4.276307373,4.580229937
19.02907454,0.677341461,1.301543427,4.30010788,4.543537666
19.03912654,0.516276398,1.0285112,4.332141266,4.482390496
19.04917854,0.299078064,0.841999054,4.311933289,4.403541618
19.05923054,0.1088237,0.833317108,4.134851532,4.219390619
19.06928254,-0.038170624,0.859512634,3.926933899,4.02007821
19.07933454,-0.214054871,0.815354462,3.698508911,3.793361379
19.08938654,-0.309256897,0.702938232,3.380719757,3.466846992
19.09943854,-0.432600403,0.795146484,3.391347656,3.510076917
19.10949054,-0.499361572,0.945134583,3.520678711,3.679377657
19.11954254,-0.434995422,1.066532135,3.427871704,3.616215734
19.12959454,-0.271685028,1.078357544,3.261866913,3.446221627
19.13964654,-0.131277008,1.011446686,3.205883331,3.364215508
19.14969854,-0.043709106,0.926423492,3.184477844,3.316786112
19.15975054,-0.023501129,0.832568665,3.015179901,3.128103694
19.16980254,0.045056305,0.77688446,2.90066803,3.003240675
19.17985454,0.233514404,0.784368896,2.872376862,2.9866892
19.18990654,0.386196899,0.837209015,2.824027405,2.970723441
19.19995854,0.456251221,0.850381622,2.758613434,2.922543782
19.21001054,0.453257446,0.851579132,2.570155334,2.745237289
19.22006254,0.374670868,0.849333801,2.456391907,2.62594885
19.23011454,0.288001099,0.857866058,2.551294556,2.707024698
19.24016554,0.259260864,0.889749756,2.852917328,2.999667999
19.25021754,0.276026001,0.868793335,3.224145355,3.350538089
19.26026954,0.305215302,0.775986328,3.233875122,3.339649602
19.27032154,0.429906006,0.740360413,3.083288269,3.19994051
19.28037354,0.108973389,0.546214142,3.191513214,3.23975025
19.29042554,-0.109422455,0.273630981,3.239413605,3.252790754
19.30047754,-0.441581726,-0.170196075,3.248843994,3.283130887
19.31052954,-0.928219757,-0.803379364,2.850522308,3.103624937
19.32058154,-1.329535217,-1.566642151,2.353406067,3.124188157
19.33063354,-1.494941254,-2.327360229,2.124382324,3.487757911
19.34068554,-1.358724518,-2.932102661,2.012265472,3.806910908
19.35073754,-0.821491699,-3.187770996,2.416874084,4.083872289
19.36078954,0.344134369,-2.721790009,2.950514374,4.028908585
19.37084154,1.515897675,-2.094743958,3.356769562,4.237192455
19.38089354,2.276615753,-1.775906982,3.927083588,4.874301017
19.39094554,2.544109497,-1.606609039,4.693789215,5.575423117
19.40099754,2.21733902,-1.348845062,5.93934906,6.481654309
19.41104954,1.849254456,-1.083297272,7.543712769,7.842249509
19.42110154,1.556762695,-1.060694275,9.067244568,9.260858842
19.43115354,1.08344696,-1.420096893,10.24888733,10.40337561
19.44120554,0.807271271,-2.002386017,11.50492538,11.70574836
19.45125754,0.994681549,-2.378703461,13.03474411,13.28729376
19.46130954,1.577719116,-2.458188171,14.83594849,15.12075574
19.47136154,2.103126526,-2.189945984,16.40468628,16.68330712
19.48141354,2.601290588,-1.470242615,17.41209137,17.66661405
19.49146554,2.951262817,-0.850830688,18.67696106,18.92782976
19.50151754,3.119213562,-0.845741272,20.58489349,20.83704902
19.51156954,3.16741333,-0.932111664,22.29179398,22.53498209
19.52162154,3.15573761,-0.840352478,22.73172913,22.96511226
19.53167354,2.776426392,-0.660276947,22.48878433,22.66914048
19.54172554,2.243534546,-0.344733124,21.88733505,22.00472049
19.55177754,1.647773438,0.042661285,21.15326157,21.21738561
19.56182954,1.068777466,0.397722931,20.63997894,20.67145857
19.57188154,0.730480957,0.667162628,20.17190231,20.19614694
19.58193354,0.631387024,1.015787659,19.52479797,19.56139591
19.59198554,0.580193481,1.279539185,18.77695313,18.82944008
19.60203754,0.706381073,1.667532349,18.04302933,18.13368539
19.61208954,1.087787933,1.937121735,18.11727493,18.25298261
19.62214154,1.926044769,2.489473114,18.26965805,18.53881145
19.63219354,2.854563904,3.040926361,18.52921829,18.99283283
19.64224554,3.105142822,2.907104645,18.4150058,18.89988381
19.65229754,2.356998596,1.870510254,17.6068364,17.86210903
19.66234954,1.290466461,0.683478699,16.15964584,16.22549231
19.67240154,0.641416168,0.104333038,14.72053848,14.73487541
19.68245354,0.250728607,-0.119750977,13.44683716,13.44970761
19.69250554,-0.056881714,-0.242346039,12.25037521,12.25290415
19.70255754,-0.445323944,-0.436791687,11.00541412,11.02307763
19.71260954,-0.85412384,-0.633482666,9.823022919,9.88041533
19.72266154,-1.153800659,-0.766705627,8.890162811,8.997448988
19.73271354,-1.319506073,-0.785267029,8.298443298,8.439306948
19.74276554,-1.334774323,-0.811312866,8.150999908,8.299316271
