"Time (s)","Acceleration x (m/s^2)","Acceleration y (m/s^2)","Acceleration z (m/s^2)","Absolute acceleration (m/s^2)"
1.922083320E-3,-3.541635132E0,4.041146393E0,6.954537964E0,8.788608642E0
1.194108336E-2,-3.284320221E0,3.496129761E0,6.818770294E0,8.336984523E0
2.196008340E-2,-3.278033295E0,3.237168274E0,6.902296600E0,8.298581751E0
3.197908332E-2,-3.215014343E0,3.208727417E0,7.261399841E0,8.565055547E0
4.199808335E-2,-2.826871490E0,3.057691498E0,7.927065582E0,8.954275429E0
5.201708339E-2,-2.586920471E0,2.792892151E0,8.661139069E0,9.460852713E0
6.203608331E-2,-2.593955841E0,2.663261719E0,9.310339050E0,1.002516749E1
7.205508335E-2,-2.439177704E0,2.648891602E0,9.613309021E0,1.026556988E1
8.207408339E-2,-2.224374390E0,2.828069000E0,9.316027222E0,9.986700100E0
9.209308331E-2,-2.098486176E0,3.039728851E0,8.365803223E0,9.144958134E0
1.021120833E-1,-2.112257538E0,3.188220062E0,7.169490967E0,8.125760259E0
1.121310834E-1,-2.242337036E0,3.350482635E0,6.480324097E0,7.632064575E0
1.221510833E-1,-2.654430084E0,3.409459991E0,7.058721313E0,8.276228796E0
1.321700834E-1,-3.344195709E0,3.342100067E0,8.763975220E0,9.957938514E0
1.421890834E-1,-4.214934998E0,2.959795074E0,1.119551880E1,1.232338042E1
1.522080833E-1,-4.755910034E0,2.492167511E0,1.472278381E1,1.567130953E1
1.622270833E-1,-4.199666748E0,2.561323700E0,1.918665115E1,1.980719976E1
1.722460834E-1,-2.417921906E0,3.503314819E0,2.299263657E1,2.338334658E1
1.822650833E-1,4.090992737E-1,4.757107544E0,2.569182358E1,2.613172848E1
1.922840833E-1,2.326162720E-1,5.037175140E0,2.609343842E1,2.657620688E1
2.023030834E-1,-1.307381287E0,1.829196167E0,2.266212387E1,2.277338497E1
2.123220833E-1,1.235830078E0,-1.774709473E0,1.925236450E1,1.937344597E1
2.223410833E-1,1.404080200E0,-2.197580109E0,1.871378448E1,1.889461641E1
2.323600834E-1,5.792953491E-2,-2.286644897E0,1.805350754E1,1.819783600E1
2.423790833E-1,-5.629792786E-1,-1.820963287E0,1.658461212E1,1.669377765E1
2.523990833E-1,-5.948629761E-1,-1.138682098E0,1.473924957E1,1.479513220E1
2.624180834E-1,-1.044827271E0,-6.770420837E-1,1.414094376E1,1.419564512E1
2.724370833E-1,-1.721569977E0,-9.003776550E-1,1.572195602E1,1.584153983E1
2.824560833E-1,-3.139720917E0,-1.386416931E0,1.685345306E1,1.719938602E1
2.924750834E-1,-4.669988708E0,-1.691033478E0,1.592194016E1,1.667862605E1
3.024940833E-1,-5.248086548E0,-1.563348999E0,1.460872101E1,1.560132052E1
3.125130833E-1,-4.647385712E0,-1.416803741E0,1.428763870E1,1.509112807E1
3.225319583E-1,-3.515738983E0,-8.292755127E-1,1.346165634E1,1.393787322E1
3.325509584E-1,-1.113684082E0,-1.898352356E0,1.128473328E1,1.149735791E1
3.425699583E-1,1.014739838E0,-4.062252502E0,9.417665863E0,1.030650390E1
3.525889583E-1,9.512718201E-1,-3.913012848E0,8.791817322E0,9.670193351E0
3.626079584E-1,-7.831713867E-1,-7.490423584E-1,6.870263214E0,6.955209451E0
3.726279583E-1,-2.398013306E-1,2.719844055E-1,3.974534912E0,3.991040962E0
3.826469583E-1,1.206491089E0,2.971321106E-1,1.692680054E0,2.099779513E0
3.926659584E-1,1.168769531E0,6.496490479E-1,6.176156616E-1,1.472927428E0
4.026849583E-1,2.285746765E-1,2.005828857E-2,5.897735596E-1,6.328361314E-1
4.127039583E-1,7.325765991E-1,2.034269714E-1,3.418291626E0,3.501823617E0
4.227229584E-1,2.077080688E0,1.634900208E0,6.268963623E0,6.803459986E0
4.327419583E-1,2.680326233E0,1.526375885E0,4.703369293E0,5.624558184E0
4.427609583E-1,9.776170349E-1,6.535409546E-1,1.036295013E0,1.567404926E0
4.527799584E-1,-1.746867371E-1,-2.935395813E-1,-2.291734314E-1,4.113409821E-1
4.627989583E-1,-5.897735596E-2,-2.561174011E-1,-1.496887207E-4,2.628202315E-1
4.728179583E-1,-5.598358154E-2,-2.327659607E-1,-2.035766602E-2,2.402677432E-1
4.828369584E-1,-6.406677246E-2,-2.433938599E-1,-7.035369873E-3,2.517828802E-1
4.928559583E-1,-6.661148071E-2,-2.408491516E-1,1.167572021E-2,2.501633979E-1
5.028759583E-1,-5.568420410E-2,-3.019221497E-1,4.113446045E-1,5.132855917E-1
5.128949584E-1,9.011260986E-2,-6.197113037E-1,5.154082031E0,5.191986515E0
5.229139583E-1,-5.004093933E-1,-5.755531311E-1,3.192261658E0,3.282103816E0
5.329329583E-1,-1.562151489E0,-8.647517395E-1,6.769522705E0,7.001039244E0
5.429519584E-1,-8.768765259E-1,-3.667373657E-2,8.455317078E0,8.500743749E0
5.529709583E-1,2.442620544E0,-4.722679138E-1,8.061486053E0,8.436645631E0
5.629899583E-1,4.773423615E0,-3.094365234E0,6.474785614E0,8.618788659E0
5.730089584E-1,2.888393555E0,-4.675826569E0,6.146817627E0,8.245576897E0
5.830279583E-1,2.256707153E0,-5.121000824E0,5.298381958E0,7.706505563E0
5.930469583E-1,3.390898590E0,-5.517825623E0,4.040547638E0,7.633519376E0
6.030659584E-1,3.319796448E0,-6.143973541E0,3.603157196E0,7.858256875E0
6.130849583E-1,2.343975677E0,-6.534810791E0,4.737797699E0,8.405040219E0
6.231039583E-1,1.391206970E0,-5.457351379E0,6.838229828E0,8.858867201E0
6.331229584E-1,1.800904999E0,-1.743574219E0,9.273964691E0,9.606754445E0
6.431429583E-1,6.061195679E0,3.715723114E0,9.989776154E0,1.226133430E1
6.531619583E-1,1.082653610E1,6.474935303E0,7.755073242E0,1.480810022E1
6.631809584E-1,1.425321030E1,1.020562729E1,1.203512283E1,2.126388990E1
6.731999583E-1,1.397853149E1,1.375833939E1,1.623643616E1,2.546199333E1
6.832189583E-1,1.190339676E1,1.564292038E1,1.674403061E1,2.582158735E1
6.932379584E-1,8.554411011E0,1.640618317E1,1.581730774E1,2.434189840E1
7.032569584E-1,4.495900726E0,1.756866577E1,1.444541061E1,2.318493106E1
7.132759583E-1,2.350112915E-2,1.974214600E1,1.141346558E1,2.280394872E1
7.232949584E-1,-1.394500122E0,2.119382721E1,9.875413971E0,2.342320950E1
7.333139584E-1,-1.356928253E0,2.083831650E1,1.013332764E1,2.321122611E1
7.433329583E-1,-5.697152710E-1,1.820065155E1,9.516460419E0,2.054632111E1
7.533519584E-1,-6.342311096E-1,1.380549133E1,7.870632935E0,1.590410962E1
7.633709584E-1,-1.255888367E0,8.741372223E0,5.442532196E0,1.037352402E1
7.733909583E-1,-1.295106812E0,4.207300873E0,3.035238190E0,5.347088288E0
7.834099584E-1,-5.364843750E-1,7.527845764E-1,6.262976074E-1,1.116579060E0
7.934289584E-1,1.843416595E0,-1.407672729E0,-1.608405304E0,2.822533415E0
8.034479583E-1,4.971761169E0,-2.330503693E0,-2.236948242E0,5.929046637E0
8.134669584E-1,7.806566162E0,-2.838397522E0,-2.108365631E0,8.569958073E0
8.234859584E-1,8.392298126E0,-3.383414154E0,-1.872306519E0,9.240329587E0
8.335049583E-1,5.892047424E0,-1.812281342E0,-1.475930786E-1,6.166228201E0
8.435239583E-1,2.974464569E0,-6.042933655E-1,1.371897125E0,3.330872508E0
8.535429584E-1,9.536668396E-1,-5.840853882E-1,1.497036896E0,1.868623999E0
8.635619583E-1,-1.267863464E-1,-1.369651794E-1,1.066083069E0,1.082297255E0
8.735809583E-1,8.217910767E-2,4.309538269E-1,7.015910339E-1,8.274687822E-1
8.835999584E-1,1.077160034E0,1.218915253E0,4.906796265E-1,1.699056982E0
8.936189583E-1,2.799029388E0,2.110610962E0,3.770658875E-1,3.525822292E0
9.036389583E-1,5.002597046E0,3.103346558E0,4.029620361E-1,5.900772446E0
9.136579584E-1,6.710844727E0,3.562591553E0,1.334624634E0,7.714189421E0
9.236769583E-1,7.549101563E0,3.048560486E0,3.194656677E0,8.745769647E0
9.336959583E-1,7.562274170E0,1.872456207E0,5.387147369E0,9.471823460E0
9.437149584E-1,7.764503632E0,8.400531006E-1,7.669750671E0,1.094615372E1
9.537339583E-1,8.126600647E0,3.972738647E-1,9.914033661E0,1.282526912E1
9.637529583E-1,9.319470062E0,-2.145039368E-1,1.115914444E1,1.454046212E1
9.737719584E-1,1.076142151E1,-3.281176758E-1,1.198243240E1,1.610883423E1
9.837909583E-1,1.059960800E1,2.556683350E-1,1.253283783E1,1.641612257E1
9.938099583E-1,8.994795227E0,1.069076843E0,1.201416641E1,1.504624408E1
1.003828958E0,6.912475433E0,1.538800049E0,1.035621414E1,1.254597121E1
1.013847958E0,4.679718475E0,1.368603973E0,8.151149597E0,9.498109370E0
1.023867958E0,2.177671509E0,1.430275726E0,5.831872559E0,6.387384394E0
1.033886958E0,-6.845265198E-1,1.782044220E0,2.947221222E0,3.511462813E0
1.043905958E0,-3.339555359E0,2.113305359E0,1.442999268E0,4.207248082E0
1.053924958E0,-4.586761780E0,2.700085144E0,1.351389771E0,5.491365743E0
1.063943958E0,-4.382586365E0,3.094814301E0,1.762734375E0,5.647315404E0
1.073962958E0,-3.819756775E0,3.163371735E0,2.326761475E0,5.478255335E0
1.083981958E0,-3.263812866E0,3.146157532E0,2.769391022E0,5.312279009E0
1.094000958E0,-2.895578613E0,3.091371460E0,2.955005035E0,5.164591733E0
1.104019958E0,-2.735411682E0,2.944077759E0,2.811303864E0,4.904436801E0
1.114038958E0,-2.025138702E0,2.881058807E0,2.378703461E0,4.249696080E0
1.124057958E0,-1.363215179E0,3.000660095E0,2.098486176E0,3.907167882E0
1.134076958E0,-9.060658264E-1,2.965632935E0,1.848356323E0,3.610035330E0
1.144095958E0,4.358935547E-1,2.922073517E0,1.533111877E0,3.328505499E0
1.154115958E0,2.124681702E0,3.111280060E0,1.692380676E0,4.130192283E0
1.164134958E0,4.380790100E0,3.000211029E0,2.578986969E0,5.902860485E0
1.174153958E0,6.498735809E0,2.910547485E0,4.945865021E0,8.669857818E0
1.184172958E0,8.401728516E0,3.041824493E0,8.535849609E0,1.235728396E1
1.194191958E0,9.282496948E0,3.733236694E0,1.327978455E1,1.662692044E1
1.204210958E0,9.625284119E0,6.433621216E0,1.870300690E1,2.199636432E1
1.214229958E0,1.489283020E1,1.060769119E1,2.511447418E1,3.106535558E1
1.224248958E0,2.759975601E1,1.474838058E1,3.401391769E1,4.621912871E1
1.234267958E0,3.992901718E1,1.556283691E1,4.379891968E1,6.127702400E1
1.244286958E0,4.624588120E1,1.233420090E1,4.954397278E1,6.888700369E1
1.254305958E0,4.406686249E1,8.709787903E0,4.622672104E1,6.445664056E1
1.264324958E0,3.541455505E1,9.147926788E0,3.628215088E1,5.151960546E1
1.274343958E0,2.540487030E1,1.237551498E1,2.421664124E1,3.721567571E1
1.284363958E0,1.721974136E1,1.381537079E1,1.884865402E1,2.902853288E1
1.294382958E0,1.140044266E1,1.441786789E1,1.741119324E1,2.531787229E1
1.304401958E0,8.710087280E0,1.276350815E1,1.750834122E1,2.335197578E1
1.314420958E0,6.977440338E0,1.049647247E1,1.688937836E1,2.107395808E1
1.324439958E0,6.610702972E0,8.880732422E0,1.360475876E1,1.754018994E1
1.334458958E0,7.456294556E0,7.674241333E0,8.847052460E0,1.388382677E1
1.344477958E0,7.899373169E0,5.977968750E0,5.279521179E0,1.122539758E1
1.354496958E0,6.267317047E0,3.721860352E0,2.882256317E0,7.838297578E0
1.364515958E0,3.158581696E0,1.247655487E0,9.777667236E-1,3.534021832E0
1.374534958E0,-1.739233246E0,-8.771759033E-1,-1.445394287E0,2.425599821E0
1.384553958E0,-6.488407288E0,-2.417472839E0,-4.001329193E0,7.997139449E0
1.394572958E0,-9.525890808E0,-3.123704224E0,-5.086422729E0,1.124152214E1
1.404591958E0,-1.113953522E1,-2.772384796E0,-5.446873169E0,1.270605327E1
1.414611958E0,-1.183618652E1,-2.290836182E0,-5.658832397E0,1.331786867E1
1.424630958E0,-1.168125870E1,-2.049238586E0,-5.554349670E0,1.309587660E1
1.434649958E0,-1.123264160E1,-2.025288391E0,-5.167703705E0,1.252913373E1
1.444668958E0,-9.606123962E0,-1.813778229E0,-4.769082642E0,1.087711167E1
1.454687958E0,-7.090006256E0,-1.299298096E0,-4.347559204E0,8.417697743E0
1.464706958E0,-4.353397064E0,-4.578977966E-1,-3.841012573E0,5.823668430E0
1.474725958E0,-1.443598022E0,6.821315002E-1,-3.413651276E0,3.768593062E0
1.484744958E0,2.356100464E-1,1.250200195E0,-3.381318512E0,3.612731308E0
1.494763958E0,9.044192505E-1,1.091679840E0,-3.253334656E0,3.548792109E0
1.504782958E0,1.069675598E0,6.041436768E-1,-2.761906586E0,3.022800598E0
1.514801958E0,5.174739075E-1,-1.073268127E-1,-2.131118317E0,2.195669276E0
1.524820958E0,-3.435356140E-1,-1.211730194E0,-2.065554657E0,2.419260801E0
1.534840958E0,-5.758525085E-1,-2.572550354E0,-1.897304535E0,3.247981825E0
1.544859958E0,-6.721023560E-1,-3.549568634E0,-1.329834595E0,3.849625841E0
1.554878958E0,-5.942642212E-1,-3.996539154E0,-6.212081909E-1,4.087954842E0
1.564897958E0,-2.781216431E-1,-4.311184845E0,-2.186952209E-1,4.325678446E0
1.574916958E0,-1.285826111E-1,-4.522096252E0,-1.901046753E-1,4.527916496E0
1.584935958E0,-3.324586487E-1,-4.526886292E0,-2.989283752E-1,4.548910465E0
1.594954958E0,-6.719526672E-1,-4.566853180E0,-7.682025146E-1,4.679508891E0
1.604973958E0,-1.241518250E0,-4.845124512E0,-1.568438416E0,5.241812488E0
1.614992958E0,-1.900597687E0,-5.041815491E0,-2.251617737E0,5.839688129E0
1.625011958E0,-2.042352905E0,-5.238955536E0,-2.628384247E0,6.206952895E0
1.635030958E0,-2.079326019E0,-5.357359314E0,-3.064876556E0,6.512938186E0
1.645049958E0,-2.736609192E0,-5.314099274E0,-3.993096313E0,7.188428140E0
1.655068958E0,-3.842060394E0,-5.472469940E0,-5.091063080E0,8.404063220E0
1.665088958E0,-4.065096588E0,-5.792953491E0,-5.701493683E0,9.087923340E0
1.675107958E0,-3.549269257E0,-6.069428558E0,-5.699547729E0,9.050973406E0
1.685126958E0,-3.543281708E0,-6.280489655E0,-5.042264557E0,8.799081056E0
1.695145958E0,-3.352129211E0,-6.719077606E0,-3.827540588E0,8.428098308E0
1.705164958E0,-2.584226074E0,-7.319928131E0,-2.225571899E0,8.075440702E0
1.715183958E0,-1.670376434E0,-7.735014954E0,1.676513672E-2,7.913336517E0
1.725202958E0,-1.256337433E0,-7.410040741E0,1.983674927E0,7.773162403E0
1.735221958E0,-6.641688538E-1,-7.137008514E0,2.379900970E0,7.552611431E0
1.745240958E0,6.408174133E-1,-6.724017334E0,1.815275116E0,6.994160408E0
1.755259958E0,1.960323486E0,-6.346801758E0,1.129102020E0,6.737924910E0
1.765278958E0,3.417243805E0,-6.378086700E0,1.469494171E0,7.383560002E0
1.775297958E0,5.822891235E0,-7.095694427E0,2.372416534E0,9.480680459E0
1.785316958E0,9.149423676E0,-8.226293335E0,3.308270416E0,1.274082057E1
1.795336958E0,1.394664780E1,-1.029933243E1,2.844983826E0,1.756926766E1
1.805355958E0,1.988150620E1,-1.636277344E1,1.192420349E0,2.577666599E1
1.815374958E0,2.788147018E1,-2.292722260E1,-3.074606323E-1,3.609887045E1
1.825393958E0,3.515245010E1,-3.065729782E1,-2.067201233E0,4.668873503E1
1.835412958E0,4.257745972E1,-3.521037964E1,-2.087259521E0,5.528985045E1
1.845431958E0,5.150190125E1,-3.646581894E1,-8.545729065E-1,6.311047518E1
1.855450958E0,5.915054581E1,-3.763982758E1,5.303471375E-1,7.011294429E1
1.865469958E0,6.006035385E1,-3.551245148E1,2.636916504E0,6.982358945E1
1.875488958E0,5.422069748E1,-3.365047348E1,4.368515625E0,6.396344526E1
1.885507958E0,4.804977997E1,-3.545003128E1,5.441933441E0,5.995915870E1
1.895526958E0,4.292593506E1,-3.548835159E1,6.126310272E0,5.603205044E1
1.905545958E0,3.918805801E1,-3.263079391E1,4.913831635E0,5.123102911E1
1.915564958E0,3.483960068E1,-2.833757172E1,2.950364685E-1,4.490994091E1
1.925584958E0,1.943588287E1,-2.388118881E1,-3.458063919E1,4.630210934E1
1.935603958E0,1.454076233E1,-1.508068954E1,-2.422532318E1,3.202697690E1
1.945622958E0,1.702903793E1,-1.117650833E1,-2.406994629E-1,2.037057701E1
1.955641958E0,6.336622925E0,-9.870773621E0,-7.566166077E0,1.395821733E1
1.965660958E0,-3.269800415E0,-7.602241058E0,-9.023385773E0,1.224365773E1
1.975679958E0,-7.024143219E0,-4.766987000E0,-4.869823151E0,9.786619975E0
1.985698958E0,-6.697073364E0,-7.723937988E-1,3.309617615E0,7.510056763E0
1.995717958E0,-7.767796783E0,2.900668030E0,8.666078796E0,1.199389276E1
2.005736958E0,-1.082578766E1,4.237537994E0,9.017697601E0,1.471303085E1
2.015755958E0,-1.172811127E1,5.162015533E0,7.203021240E0,1.469960929E1
2.025774958E0,-1.229962280E1,7.142546997E0,3.653901672E0,1.468494794E1
2.035793958E0,-1.185370010E1,8.768914948E0,-9.493258667E-1,1.477515804E1
2.045812958E0,-7.264393616E0,9.300908661E0,-2.897075500E0,1.215201066E1
2.055832958E0,-3.146756287E0,8.961863708E0,-3.964356079E0,1.029238531E1
2.065851958E0,-2.082170105E-1,7.213649139E0,-4.935237122E0,8.742805824E0
2.075870958E0,2.190544739E0,3.578308868E0,-3.648662567E0,5.560172582E0
2.085889958E0,3.671864319E0,4.185296631E-1,-9.919871521E-1,3.826459612E0
2.095908958E0,4.739743652E0,2.507286072E-1,7.581733704E-1,4.806543621E0
2.105927958E0,4.709656219E0,3.287164307E-1,-2.249821472E-1,4.726471534E0
2.115946958E0,3.360811157E0,3.050656128E-1,-1.516346741E0,3.699651889E0
2.125965958E0,4.331093445E0,1.331181793E0,-1.619781647E0,4.811871567E0
2.135984958E0,6.871311035E0,3.264860687E0,-2.084565125E0,7.887942850E0
2.146003958E0,6.902595978E0,3.288062439E0,-1.658850403E0,7.823616203E0
2.156022958E0,5.486241302E0,2.600242767E0,-3.131488037E-1,6.079323009E0
2.166041958E0,2.879262543E0,-3.412902832E-2,3.505260773E0,4.536316861E0
2.176061958E0,-6.780899048E-1,-2.733914795E0,7.705376587E0,8.204079739E0
2.186080958E0,-1.907333679E0,-3.385659485E0,9.293124847E0,1.007287354E1
2.196099958E0,-2.056124268E0,-3.068618774E0,8.456813965E0,9.228313531E0
2.206118958E0,-2.700234833E0,-2.343676300E0,5.680237885E0,6.711869276E0
2.216137958E0,-3.109034729E0,-1.666185150E0,1.995500336E0,4.052689415E0
2.226156958E0,-3.350332947E0,-1.515598297E0,-1.138981476E0,3.849551643E0
2.236175958E0,-4.259093170E0,-6.682104492E-1,-2.799628143E0,5.140456942E0
2.246194958E0,-4.612657928E0,-1.152902527E0,-1.759141846E0,5.069553968E0
2.256213958E0,-4.751419373E0,-2.927162933E0,-2.642305298E0,6.174629234E0
2.266232958E0,-5.035079498E0,-3.030298462E0,-3.733386383E0,6.962248790E0
2.276251958E0,-4.315076752E0,-2.587968292E0,-3.503913574E0,6.131466186E0
2.286270958E0,-7.866142273E-1,-3.932173004E0,-5.095703430E0,6.484361181E0
2.296289958E0,5.478607178E-1,-3.777245178E0,-5.663921814E0,6.829915286E0
2.306309958E0,-3.442840576E-3,-2.354902954E0,-4.305796051E0,4.907693899E0
2.316328958E0,-4.129911804E-1,-2.812651062E0,-5.160668335E0,5.891864338E0
2.326347542E0,1.125659180E0,-3.404220886E0,-6.508764954E0,7.431005965E0
2.336366542E0,2.318827972E0,-3.272195435E0,-6.807693329E0,7.901197035E0
2.346385542E0,4.043990479E0,-3.370241547E0,-6.254144440E0,8.174760531E0
2.356404542E0,7.299720154E0,-4.554878082E0,-4.220323792E0,9.583525529E0
2.366423542E0,1.042147842E1,-8.004005585E0,-1.881736908E0,1.327449629E1
2.376442542E0,1.025487488E1,-1.057565781E1,-4.206702118E0,1.532003066E1
2.386461542E0,6.795718231E0,-1.037522461E1,-4.300407257E0,1.312709315E1
2.396480542E0,8.896749115E0,-1.555774750E1,-3.218008118E0,1.820854822E1
2.406499542E0,1.363230148E1,-2.301479050E1,-6.010900269E0,2.741625699E1
2.416518542E0,1.974020004E1,-2.747281998E1,-1.022029678E1,3.533957840E1
2.426538542E0,2.327569794E1,-2.369557480E1,-1.550056641E1,3.665386662E1
2.436557542E0,1.882784729E1,-1.734862335E1,-1.583167786E1,3.010157121E1
2.446576542E0,1.606519226E1,-1.704385712E1,-2.188583817E1,3.205578544E1
2.456595542E0,1.876602585E1,-2.032248917E1,-2.718032822E1,3.878063349E1
2.466614542E0,-2.277962952E0,-2.333617218E1,1.264720001E0,2.348117467E1
2.476633542E0,2.150338348E1,-4.956133667E1,1.333591782E1,5.564681750E1
2.486652542E0,9.796977081E0,-5.875731354E1,1.005968079E1,6.041191796E1
2.496671542E0,2.339634705E0,-4.986026505E1,5.491031342E0,5.021624584E1
2.506690542E0,-4.993615723E-1,-4.198454269E1,5.575006714E0,4.235601359E1
2.516709542E0,-2.286046143E0,-3.064517303E1,6.124514008E0,3.133468221E1
2.526728542E0,-5.586832123E0,-1.990425888E1,4.371210022E0,2.113053932E1
2.536747542E0,-7.855514374E0,-1.163455582E1,-2.792143707E0,1.431321283E1
2.546766542E0,-7.760312347E0,-5.916746063E0,-1.071411987E1,1.449215982E1
2.556785542E0,-5.844446411E0,-2.161056061E0,-1.026385620E1,1.200726702E1
2.566805542E0,-4.039200439E0,-5.149291992E-1,-7.662266235E0,8.677016546E0
2.576824542E0,-3.300935669E0,1.005309448E0,-7.868387604E0,8.591760405E0
2.586843542E0,-2.362237701E0,2.023043060E0,-4.808750153E0,5.726861986E0
2.596862542E0,-1.268462219E0,2.100282440E0,-1.669927368E0,2.967969027E0
2.606881542E0,-8.129594421E-1,2.075434113E0,1.222956848E-1,2.232327495E0
2.616900542E0,-5.342390442E-1,2.097588043E0,4.760101318E-2,2.165075706E0
2.626919542E0,8.891510010E-2,2.043400726E0,-1.692230988E0,2.654625800E0
2.636938542E0,8.530760193E-1,2.095492401E0,-4.907245331E0,5.403691686E0
2.646957542E0,7.878117371E-1,1.611399078E0,-3.848347321E0,4.245825176E0
2.656976542E0,3.517684937E-1,9.928852844E-1,-1.230890350E0,1.620078182E0
2.666995542E0,2.841091919E-1,6.730004883E-1,3.083587646E-2,7.311624590E-1
2.677014542E0,6.170169067E-1,6.331832886E-1,5.731581116E-1,1.053632365E0
2.687034542E0,8.041278076E-1,8.131091309E-1,7.337741089E-1,1.358746640E0
2.697053542E0,5.426216125E-1,8.993298340E-1,9.135502625E-1,1.392051165E0
2.707072542E0,4.966671753E-1,1.027164001E0,1.233884125E0,1.680539854E0
2.717091542E0,3.930825806E-1,9.464817810E-1,1.477427673E0,1.798091824E0
2.727110542E0,-2.993774414E-4,1.711391144E0,7.891589355E-1,1.884577290E0
2.737129542E0,1.329235840E-1,2.010319519E0,1.080902252E0,2.286351444E0
2.747148542E0,7.484436035E-1,4.164340210E0,7.120692444E-1,4.290564045E0
2.757167542E0,1.532812500E0,5.546865234E0,1.156195679E0,5.869754385E0
2.767186542E0,1.571731567E0,4.960235138E0,1.916614380E0,5.545059371E0
2.777205542E0,1.369352417E0,4.429438934E0,3.639830933E0,5.894355311E0
2.787224542E0,-7.191046143E-1,2.444716187E0,2.962190094E0,3.907469620E0
2.797243542E0,5.002597046E-1,5.590574341E0,2.942131805E0,6.337264457E0
2.807262542E0,7.475454712E-1,4.510719910E0,2.247725830E0,5.094868962E0
2.817282542E0,1.285826111E-1,1.905537415E0,2.445913696E-1,1.925469102E0
2.827301542E0,2.198627930E0,1.992506561E0,1.715283051E0,3.427279258E0
2.837320542E0,4.073030090E-1,1.327289886E0,8.593629456E-1,1.632819297E0
2.847339542E0,1.651066589E-1,5.102888489E-1,-4.565505981E-2,5.382743748E-1
2.857358542E0,4.583468628E-1,1.148411865E0,1.691482544E-2,1.236615450E0
2.867377542E0,7.042854309E-1,6.837780762E-1,-2.721340942E-1,1.018639971E0
2.877396542E0,3.788621521E-1,5.773493958E-1,-2.884501648E-1,7.483798184E-1
2.887415542E0,1.445993042E-1,4.345463562E-1,-1.487905884E-1,4.815372609E-1
2.897434542E0,4.721182251E-1,2.354603577E-1,-2.249821472E-1,5.735452598E-1
2.907453542E0,6.497987366E-1,-4.291575623E-1,-2.149530029E-1,8.078486274E-1
2.917472542E0,1.086889801E0,-3.237767029E-1,1.591191101E-1,1.145198535E0
2.927491542E0,2.240840149E0,-7.396119690E-1,1.963466949E0,3.069787110E0
2.937511542E0,2.498753815E0,-8.954379272E-1,2.027384033E0,3.340039779E0
2.947530542E0,3.633993073E0,-1.201401672E0,-7.954458618E-1,3.909220606E0
2.957549542E0,3.750450897E0,-2.001188507E0,-1.769320679E0,4.604468812E0
2.967568542E0,2.937192078E0,-2.519710236E0,-1.767674103E0,4.254492767E0
2.977587542E0,1.495689697E0,-3.295097809E0,-4.117038574E0,5.481310415E0
2.987606542E0,-2.345622253E0,-1.200234100E1,-2.862736908E1,3.113012036E1
2.997625542E0,-1.860630798E-1,-9.686506805E0,-1.613345032E1,1.881890679E1
3.007644542E0,1.782343597E0,-1.084509750E1,6.724466400E0,1.288453868E1
3.017663542E0,-3.169508972E0,-2.291839096E1,2.083367615E0,2.323012811E1
3.027682542E0,-2.072140961E0,-5.016488159E1,-1.052012329E0,5.021868022E1
3.037701542E0,-1.205353455E1,-6.156083359E1,3.502716064E0,6.282748560E1
3.047720542E0,-3.135454788E1,-7.258855133E1,-1.945923431E1,8.143013728E1
3.057739542E0,-2.754871216E1,-7.889688309E1,-9.140442352E0,8.406662470E1
3.067759542E0,-1.930894684E1,-7.821370377E1,2.607906830E1,8.467784060E1
3.077778542E0,-1.651261185E1,-6.724107147E1,1.470392303E0,6.925453123E1
3.087797542E0,-1.001582199E1,-3.472194534E1,-1.182481018E1,3.802310238E1
3.097816542E0,-9.987680511E0,-1.659973068E1,-2.078832047E1,2.841582461E1
3.107835542E0,-8.432115326E0,-1.164129181E1,-1.031714539E1,1.769360712E1
3.117854542E0,-5.693709869E0,-9.699529724E0,-1.701511688E0,1.137516378E1
3.127873542E0,-4.234244843E0,-8.021668854E0,6.420149231E-1,9.093304336E0
3.137892542E0,-3.703448639E0,-5.560337219E0,1.026714935E0,6.759217808E0
3.147911542E0,-2.484982452E0,-2.641407166E0,-7.738906860E-2,3.627417631E0
3.157930542E0,-1.521885223E0,-2.233355713E-1,-1.945055237E0,2.479768797E0
3.167949542E0,-1.013392639E0,1.208736420E0,-2.373614044E0,2.849921403E0
3.177968542E0,-5.056484985E-1,1.613195343E0,-7.009922791E-1,1.830155675E0
3.187988542E0,-4.698728943E-1,1.615141296E0,-2.520758057E-1,1.700883346E0
3.198007542E0,-5.653742981E-1,1.566193085E0,-2.486329651E-1,1.683575727E0
3.208026542E0,-2.350112915E-1,1.728904724E0,-1.410666504E0,2.243729448E0
3.218045542E0,8.707392883E-1,2.093396759E0,-4.603526917E0,5.131564768E0
3.228064542E0,2.563419342E0,5.334756317E0,-5.464386749E0,8.055449474E0
3.238083542E0,1.080797470E1,2.080897751E1,-6.452781372E0,2.432003802E1
3.248102542E0,3.119213562E0,1.390757904E0,-1.063059357E1,1.116571629E1
3.258121542E0,1.573827209E0,1.172362061E0,-8.211623840E0,8.442874569E0
3.268140542E0,-4.348457336E-1,-1.745669861E0,4.085005188E-1,1.844810762E0
3.278159542E0,-5.102888489E-1,3.918850708E-1,-1.900897064E0,2.006832895E0
3.288178542E0,1.975891113E-1,2.411036224E0,-3.371588745E0,4.149668396E0
3.298197542E0,-2.501298523E-1,8.957373047E-1,-1.968406677E-1,9.506084949E-1
3.308217542E0,-8.202941895E-2,7.717950439E-1,1.904040527E-1,7.991558789E-1
3.318236542E0,1.597178650E-1,2.317181396E-1,7.749385071E-1,8.244590847E-1
3.328256042E0,6.005511475E-1,-5.233117676E-1,1.506616974E0,1.704233433E0
3.338275042E0,1.146016846E0,4.616400146E-1,5.643264771E-1,1.358282182E0
3.348294042E0,1.626966705E0,3.263214111E-1,1.119821320E0,2.001875648E0
3.358313042E0,1.720971222E0,5.400769043E-1,1.341210938E0,2.247725915E0
3.368332042E0,1.526675262E0,6.173162842E-1,1.325493622E0,2.113941838E0
3.378351042E0,1.259031830E0,8.662486267E-1,1.094972992E0,1.880030235E0
3.388370042E0,2.281256104E0,1.866468658E0,1.026415558E0,3.121115756E0
3.398389042E0,3.414399719E0,2.910248108E0,1.024619293E0,4.601903322E0
3.408408042E0,2.733465729E0,2.952310638E0,9.156459045E-1,4.126303481E0
3.418427042E0,2.162702637E0,2.814597015E0,1.596130829E0,3.891898338E0
3.428446042E0,2.051783295E0,2.923271027E0,1.152603149E0,3.752841884E0
3.438465042E0,1.777104492E0,2.610421600E0,9.511221313E-1,3.298034963E0
3.448485042E0,1.692979431E0,2.373164978E0,4.055067444E-1,2.943217132E0
3.458504042E0,1.632056122E0,1.852996674E0,-6.885681152E-3,2.469261280E0
3.468523042E0,1.361718292E0,1.320703583E0,-1.785786438E-1,1.905367417E0
3.478542042E0,9.476792908E-1,6.400689697E-1,1.796264648E-3,1.143585393E0
3.488561042E0,6.939569092E-1,-4.486170959E-1,-2.573149109E-1,8.654735432E-1
3.498580042E0,1.280587006E0,-1.446891174E0,-1.266965332E0,2.310540695E0
3.508599042E0,1.615141296E-1,-3.322490845E0,-1.678010559E-1,3.330643995E0
3.518618042E0,-3.179388428E-1,-1.778302002E0,1.523531799E0,2.363174192E0
3.528637042E0,3.059637451E-1,-1.305734711E0,1.100810852E0,1.735033567E0
3.538656042E0,6.343807983E-1,-1.866169281E0,9.307644653E-1,2.179758994E0
3.548675042E0,2.573149109E-1,-1.469045105E0,1.298699341E0,1.977605740E0
3.558694042E0,4.228706360E-1,-1.893861694E0,1.276096344E0,2.322488659E0
3.568714042E0,-1.541793823E-1,-3.328478394E0,2.814447327E0,4.361611337E0
3.578733042E0,-1.954186249E0,-6.991211700E0,1.277443542E0,7.370735848E0
3.588752042E0,1.635498962E0,-1.386386993E1,-1.613943787E0,1.405299117E1
3.598771042E0,-1.150821854E1,-3.063244949E1,-5.050497437E0,3.311032437E1
3.608790042E0,-1.080812439E1,-5.470583862E1,-7.461383972E0,5.626025758E1
3.618809042E0,-1.742316833E1,-7.862864090E1,-7.048991547E0,8.084378916E1
3.628828042E0,-4.012855225E1,-7.841683136E1,-1.999526962E1,9.032890431E1
3.638847042E0,-3.080174744E1,-7.770506149E1,-4.574936371E1,9.528813413E1
3.648866042E0,-6.890471191E0,-5.600603485E1,-2.042068497E1,6.000965679E1
3.658885042E0,-9.669891357E-1,-2.863126099E1,4.182302856E-1,2.865063857E1
3.668904042E0,-1.795216827E0,-2.109787674E1,-8.659492493E-1,2.119181621E1
3.678923042E0,-3.455863495E0,-1.661080765E1,-1.071172485E0,1.700027452E1
3.688943042E0,-4.032763824E0,-1.222956848E1,-2.463726654E0,1.311089159E1
3.698962042E0,-4.426295471E0,-8.465346222E0,-4.001927948E0,1.035710411E1
3.708981042E0,-4.626878357E0,-5.395979004E0,-4.200564880E0,8.256472495E0
3.719000042E0,-4.512965240E0,-2.893632660E0,-3.546125793E0,6.427672470E0
3.729019042E0,-3.804039459E0,-1.758543091E0,-2.380350037E0,4.819673880E0
3.739038042E0,-1.945055237E0,-1.445993042E0,-1.767674103E0,2.999801241E0
3.749057042E0,-2.633024597E-1,-9.380992126E-1,-2.564167786E0,2.743048441E0
3.759076042E0,6.810836792E-2,-6.626719666E-1,-3.321892090E0,3.388028917E0
3.769095042E0,9.849517822E-1,4.819976807E-2,-6.398144989E0,6.473693886E0
3.779114042E0,2.324815521E0,5.613327026E-2,-8.926088104E0,9.224042877E0
3.789133042E0,2.529739380E0,-6.670129395E-1,-7.163802795E0,7.626569221E0
3.799152042E0,2.283800812E0,-6.828799438E-1,-3.476819916E0,4.215489045E0
3.809171042E0,2.246977386E0,-3.362008667E-1,-1.135987701E0,2.540158746E0
3.819191042E0,2.013762360E0,1.594184875E-1,-4.318519592E-1,2.065707920E0
3.829210042E0,1.707948303E0,6.033952332E-1,3.875440979E-1,1.852394030E0
3.839229042E0,1.426683197E0,7.415579224E-1,7.991880798E-1,1.795559713E0
3.849248042E0,1.761387177E0,6.971003723E-1,1.389560394E0,2.349321563E0
3.859267042E0,2.114652557E0,1.101559296E0,1.387464752E0,2.758667569E0
3.869286042E0,2.378254395E0,1.174457703E0,2.570454712E0,3.693600180E0
3.879305042E0,2.493065643E0,1.242416382E0,3.684887238E0,4.619238976E0
3.889324042E0,2.360890503E0,1.256187744E0,3.971990204E0,4.788373189E0
3.899343042E0,2.226320343E0,1.200054474E0,3.467389526E0,4.291785542E0
3.909362042E0,1.906585236E0,1.026565247E0,2.647544403E0,3.420291630E0
3.919381042E0,2.167043610E0,9.951306152E-1,1.971101074E0,3.093800639E0
3.929400042E0,2.130519562E0,9.452842712E-1,1.582658844E0,2.817354251E0
3.939420042E0,1.464554443E0,4.876858521E-1,1.202000427E0,1.956415660E0
3.949439042E0,1.670226746E0,6.402186584E-1,1.151555328E0,2.127349757E0
3.959458042E0,1.490300903E0,6.183641052E-1,1.004860382E0,1.900819649E0
3.969477042E0,1.045276337E0,3.697311401E-1,8.737330627E-1,1.411634939E0
3.979496042E0,7.818241882E-1,2.412982178E-1,7.198530579E-1,1.089799209E0
3.989515042E0,5.123844910E-1,1.842668152E-1,5.560935974E-1,7.782880025E-1
3.999534042E0,3.255729675E-1,1.510359192E-1,4.569996643E-1,5.810837283E-1
4.009553042E0,1.832189941E-1,1.053808594E-1,3.198847961E-1,3.834065833E-1
4.019572042E0,7.274871826E-2,6.676116943E-2,1.615141296E-1,1.893046323E-1
4.029591042E0,-2.245330811E-3,2.140548706E-2,6.137237549E-3,2.238084162E-2
4.039610042E0,-6.885681152E-2,9.430389404E-3,-1.749861145E-1,1.882825882E-1
4.049629042E0,-9.744735718E-2,-1.227447510E-2,-3.924838257E-1,4.045864600E-1
4.059649042E0,-2.621049500E-1,4.505630493E-2,-1.099164276E0,1.130880710E0
4.069668042E0,-9.391470337E-1,2.800675964E-1,-3.625760193E0,3.755871668E0
4.079687042E0,-1.617835693E0,3.996688843E-1,-6.209836578E0,6.429556585E0
4.089706042E0,-1.492695923E0,2.501298523E-1,-6.232289886E0,6.413434594E0
4.099725042E0,-1.199006653E-1,1.206491089E-1,-5.348078613E0,5.350782861E0
4.109744042E0,1.371747437E0,5.673202515E-2,-3.416195984E0,3.681752918E0
4.119763042E0,1.278191986E0,-1.827699280E-1,5.792953491E-2,1.292491946E0
4.129782042E0,8.376580811E-1,-5.116360474E-1,1.233884125E0,1.576677690E0
4.139801042E0,7.499404907E-1,-8.780740356E-1,1.202748871E0,1.667342076E0
4.149820042E0,9.883946228E-1,-1.198407898E0,1.656305695E0,2.270782679E0
4.159839042E0,1.354832611E0,-1.581012268E0,2.302212524E0,3.104086613E0
4.169858042E0,1.819167023E0,-2.252665558E0,2.887345734E0,4.089087448E0
4.179878042E0,2.906356201E0,-1.326706100E1,-6.902745667E0,1.523514725E1
4.189897042E0,1.207568848E1,-2.249447250E1,-3.207829285E0,2.573157038E1
4.199916042E0,2.419299042E1,-4.525030151E1,-1.725641510E1,5.413570388E1
4.209935042E0,2.930471054E1,-6.686490372E1,-1.708472214E1,7.497712411E1
4.219954042E0,3.911845276E1,-7.904896683E1,-5.089416504E-2,8.819861163E1
4.229973042E0,4.694971756E1,-7.839692276E1,3.532803497E0,9.144853294E1
4.239992042E0,4.118655212E1,-7.185687286E1,8.854087830E-1,8.282829349E1
4.250011042E0,2.294084427E1,-3.955793884E1,-6.216722260E0,4.614932824E1
4.260030042E0,1.320389236E1,-2.199960159E1,-8.062833252E0,2.689487914E1
4.270049042E0,8.097860413E0,-1.748229538E1,-3.777694244E0,1.963356740E1
4.280068042E0,5.095254364E0,-1.515688110E1,-3.206332397E0,1.630868570E1
4.290087042E0,3.052452393E0,-1.357062973E1,-4.144730988E0,1.451407082E1
4.300106042E0,1.866468658E0,-1.165132095E1,-3.137325897E0,1.220982387E1
4.310126042E0,1.100511475E0,-9.366322632E0,-2.112407227E0,9.664439427E0
4.320145042E0,5.761518860E-1,-6.982679443E0,-1.758094025E0,7.223618055E0
4.330163792E0,3.510200500E-1,-4.667743378E0,-1.572180634E0,4.937893808E0
4.340182792E0,4.417314148E-1,-2.389181671E0,-2.674338684E0,3.613226134E0
4.350201792E0,2.215393066E-1,-6.045927429E-1,-3.435056763E0,3.494885837E0
4.360220792E0,-3.815565491E-1,1.621128845E-1,-2.158661041E0,2.198109069E0
4.370239792E0,2.544708252E-3,-2.574645996E-1,-2.545756073E0,2.558743535E0
4.380258792E0,1.003812561E0,4.538562012E-1,-5.082979889E0,5.200991219E0
4.390277792E0,1.580413513E0,8.464897156E-1,-4.914280701E0,5.231099934E0
4.400296792E0,1.750459900E0,1.435514832E-1,-2.294279022E0,2.889365522E0
4.410315792E0,1.389859772E0,2.972817993E-1,-3.682342529E-1,1.468224478E0
4.420334792E0,6.845265198E-1,2.571652222E-1,-3.188369751E-2,7.319337934E-1
4.430354792E0,3.336561584E-1,5.972579956E-2,3.044668579E-1,4.556244844E-1
4.440373792E0,2.594105530E-1,1.002914429E-1,6.225553894E-1,6.818558656E-1
4.450392792E0,2.517764282E-1,1.796264648E-1,9.207353210E-1,9.712932452E-1
4.460411792E0,2.918930054E-1,2.957849121E-1,1.150657196E0,1.223397819E0
4.470430792E0,4.799020386E-1,4.355941772E-1,1.365759888E0,1.511736857E0
4.480449792E0,7.071295166E-1,5.981561279E-1,1.636546783E0,1.880454275E0
4.490468792E0,1.012494507E0,8.750802612E-1,2.015708313E0,2.419502137E0
4.500487792E0,1.508413239E0,1.166524200E0,2.341580658E0,3.019782970E0
4.510506792E0,1.819915466E0,1.313219147E0,2.441572723E0,3.316310329E0
4.520525792E0,1.817969513E0,1.223555603E0,2.472408600E0,3.303771443E0
4.530544792E0,1.515598297E0,1.085392914E0,2.413431244E0,3.049551827E0
4.540563792E0,1.339863739E0,9.970765686E-1,2.134112091E0,2.709950357E0
4.550582792E0,1.007704468E0,1.130299530E0,1.731599121E0,2.300321899E0
4.560602792E0,5.340893555E-1,1.470541992E0,1.101110229E0,1.913162023E0
4.570621792E0,9.071136475E-2,1.721569977E0,5.748046875E-1,1.817259521E0
4.580640792E0,-8.098159790E-2,2.266137543E0,3.453318787E-1,2.293728730E0
4.590659792E0,-1.818717957E-1,3.960464172E0,6.237528992E-1,4.013405224E0
4.600678792E0,-2.279759216E-1,5.286855927E0,9.020242310E-1,5.368097086E0
4.610697792E0,-1.944456482E-1,5.005890198E0,1.065484314E0,5.121718716E0
4.620716792E0,-1.202000427E-1,4.197122040E0,7.520361328E-1,4.265658192E0
4.630735792E0,-2.426454163E-1,3.578757935E0,1.571731567E-1,3.590416209E0
4.640754792E0,-2.186952209E-1,2.704426117E0,-2.562670898E-1,2.725329529E0
4.650773792E0,-1.522334290E-1,1.873504028E0,-4.920268250E-1,1.943008687E0
4.660792792E0,-9.490264893E-2,1.242266693E0,-5.866300964E-1,1.377086751E0
4.670811792E0,-6.885681152E-3,7.494914246E-1,-5.704637146E-1,9.419201971E-1
4.680831792E0,4.370910645E-2,3.308120728E-1,-5.578898621E-1,6.500678516E-1
4.690850792E0,1.116677856E-1,-1.871109009E-2,-7.722441101E-1,7.805003298E-1
4.700869792E0,-2.781216431E-1,-3.011737061E0,-1.447789307E0,3.353208262E0
4.710888792E0,3.568579102E-1,-1.645378418E0,-2.099234619E0,2.690985636E0
4.720907792E0,1.339863739E0,-9.834548950E-2,-3.648063812E0,3.887579742E0
4.730926792E0,2.129322052E0,-8.457412720E-1,-5.051545258E0,5.546836954E0
4.740945792E0,1.620230713E0,-6.429130554E-1,-1.914219360E0,2.588961282E0
4.750964792E0,1.196911011E0,-7.318281555E-1,-5.670208740E-1,1.513169220E0
4.760983792E0,1.551523590E0,-1.410816193E0,-2.245480499E0,3.072427453E0
4.771002792E0,2.359243927E0,-4.773573303E0,-1.394545029E1,1.492744512E1
4.781021792E0,3.692671051E0,-8.391549683E0,-1.759486130E1,1.984018825E1
4.791040792E0,4.592150574E0,-1.065484314E1,2.529589691E0,1.187486224E1
4.801060792E0,4.941973114E0,-1.121048767E1,7.246281281E0,1.423399889E1
4.811079792E0,5.743256836E0,-1.120390137E1,7.407046967E0,1.460742105E1
4.821098792E0,5.679489441E0,-3.041375427E1,9.070687408E0,3.224174963E1
4.831117792E0,2.064267334E1,-7.170898041E1,1.344294525E1,7.582223032E1
4.841136792E0,2.546399734E1,-7.945866486E1,1.615530487E1,8.498875489E1
4.851155792E0,2.703408234E1,-7.809365341E1,-1.149205215E1,8.343576915E1
4.861174792E0,1.633567978E1,-7.081459030E1,-2.081466568E1,7.559636857E1
4.871193792E0,7.364685059E-2,-3.867522446E1,-1.489582397E1,4.144470995E1
4.881212792E0,-1.010099487E0,-2.324141922E1,-1.396955017E1,2.713544177E1
4.891231792E0,3.417393494E-1,-1.819840622E1,-5.849236450E0,1.911837707E1
4.901250792E0,-3.089874573E0,-1.334370163E1,-7.860304413E0,1.579196262E1
4.911269792E0,-4.105512543E0,-9.626781006E0,-6.683002625E0,1.241743411E1
4.921288792E0,-5.023553467E-1,-8.693771210E0,-2.242187347E0,8.992297973E0
4.931308792E0,7.481442261E-1,-6.831942902E0,-2.421963501E-1,6.877050434E0
4.941327792E0,-4.858895874E-1,-4.558620300E0,6.489006042E-1,4.630138197E0
4.951346792E0,-3.137475586E-1,-2.355202332E0,7.041357422E-1,2.478149046E0
4.961365792E0,2.742297363E-1,-2.887495422E-1,7.652087402E-1,8.626254474E-1
4.971384792E0,6.677613831E-1,1.275497589E0,2.417173462E0,2.813454622E0
4.981403792E0,1.187929688E0,1.620530090E0,1.792821808E0,2.692861814E0
4.991422792E0,2.474653931E0,1.560504913E0,-2.196232910E0,3.658213588E0
5.001441792E0,5.466033325E0,2.169887695E0,-6.860832825E0,9.036424070E0
5.011460792E0,5.878874817E0,1.030307465E0,-5.109474792E0,7.856808209E0
5.021479792E0,3.762575684E0,1.341360626E0,-3.592529297E0,5.372382233E0
5.031498792E0,1.891167297E0,1.105301514E0,-1.666035461E0,2.752068193E0
5.041517792E0,4.513114929E-1,-4.337979126E-1,4.162843323E-1,7.517681411E-1
5.051537792E0,1.758842468E-1,9.744735718E-2,6.439608765E-1,6.746234995E-1
5.061556792E0,3.577560425E-2,4.248165894E-1,8.439450073E-1,9.455116096E-1
5.071575792E0,-1.023870850E-1,4.775070190E-1,1.085243225E0,1.190062572E0
5.081594792E0,-2.773731995E-1,7.192543030E-1,1.562001801E0,1.741870336E0
5.091613792E0,-5.656736755E-1,1.040186920E0,2.315385132E0,2.600573753E0
5.101632792E0,-7.050338745E-1,1.380878448E0,2.837050323E0,3.233071696E0
5.111651792E0,-6.219566345E-1,1.500330048E0,2.788251801E0,3.226789180E0
5.121670792E0,-5.742059326E-1,1.562750244E0,2.443069611E0,2.956431954E0
5.131689792E0,-4.818479919E-1,1.638642426E0,1.955234070E0,2.596202372E0
5.141708792E0,-3.796105957E-1,1.830693054E0,1.561702423E0,2.436073833E0
5.151727792E0,-2.607577515E-1,2.180216217E0,1.450932770E0,2.631832681E0
5.161746792E0,-1.242416382E-1,2.630030823E0,1.591490479E0,3.076579278E0
5.171766792E0,-1.796264648E-2,3.365451508E0,1.784139862E0,3.809165467E0
5.181785792E0,1.371148682E-1,3.925287323E0,1.724414063E0,4.289555328E0
5.191804792E0,2.154020691E-1,3.938759308E0,1.324894867E0,4.161198066E0
5.201823792E0,-2.215393066E-2,3.672612762E0,1.257834320E0,3.882102842E0
5.211842792E0,-4.152365112E-1,3.309168549E0,1.428329773E0,3.628104710E0
5.221861792E0,-4.102967834E-1,3.028801575E0,9.136999512E-1,3.190114423E0
5.231880792E0,-4.070036316E-1,2.673590240E0,5.520520020E-1,2.760162702E0
5.241899792E0,-4.550537109E-1,2.316582642E0,1.237925720E-1,2.364096787E0
5.251918792E0,-4.605921936E-1,2.039658508E0,-1.805245972E-1,2.098795161E0
5.261937792E0,-3.763174438E-1,1.768871613E0,-2.766247559E-1,1.829492513E0
5.271956792E0,-2.395019531E-1,1.391356659E0,-2.698887634E-1,1.437384598E0
5.281975792E0,-1.279838562E-1,9.208850098E-1,-2.441423035E-1,9.612567467E-1
5.291994792E0,-5.493576050E-2,5.776487732E-1,-2.775228882E-1,6.432068069E-1
5.302014792E0,3.592529297E-2,3.240760803E-1,-4.730163574E-1,5.745088397E-1
5.312033792E0,1.812730408E-1,1.146615601E-1,-9.726773071E-1,9.960463506E-1
5.322052792E0,1.050665131E0,-2.625540161E-1,-7.445516968E0,7.523865678E0
5.332072167E0,4.284240875E0,-1.780247955E0,-2.219120316E1,2.267098366E1
5.342091167E0,3.652853851E0,-1.694476318E0,-1.202449493E1,1.268081502E1
5.352110167E0,6.792874146E-1,-5.921685791E-1,-1.773212585E0,1.989064577E0
5.362129167E0,-3.667373657E-2,-8.753796387E-1,-3.838018799E-1,9.565241020E-1
5.372148167E0,5.613327026E-2,-1.951641541E0,-4.215084686E0,4.645319640E0
5.382167167E0,2.308050385E0,-1.386536682E1,-3.752875854E1,4.007472036E1
5.392186167E0,3.103346558E0,-1.738275238E1,-1.137484589E1,2.100423669E1
5.402205167E0,3.259621582E0,-7.193441162E0,1.012778915E1,1.284300750E1
5.412224167E0,3.926784210E0,-1.297651520E1,4.667294312E-1,1.356567054E1
5.422244167E0,5.371729431E0,-4.613571030E1,-9.805060272E0,4.747102747E1
5.432263167E0,9.392817535E0,-7.713938782E1,6.401737518E0,7.797238240E1
5.442282167E0,1.229603027E1,-7.881709900E1,1.193019104E1,8.065765254E1
5.452301167E0,9.693691864E0,-7.826953766E1,-8.825646973E-1,7.887247370E1
5.462320167E0,4.355492706E0,-7.611596603E1,-1.260334122E1,7.727518885E1
5.472339167E0,3.072510681E0,-4.926674927E1,-4.226760406E0,4.954309648E1
5.482358167E0,1.780098267E0,-2.634925644E1,-3.299139404E0,2.661458971E1
5.492377167E0,1.670825500E0,-1.715447708E1,-5.608686676E0,1.812526160E1
5.502396167E0,1.027912445E0,-1.127829666E1,-5.220543823E0,1.247039123E1
5.512415167E0,5.661227417E-1,-6.772217102E0,-3.733087006E0,7.753667392E0
5.522434167E0,8.711883545E-2,-2.585722961E0,-2.561473389E0,3.640700324E0
5.532453167E0,-9.473799133E-1,1.116677856E0,-2.605481873E0,2.988818148E0
5.542473167E0,1.010398865E-1,3.057392120E0,-3.778143311E0,4.861298439E0
5.552492167E0,8.785231018E-1,2.761307831E0,-3.056044922E0,4.211417142E0
5.562511167E0,1.125958557E0,1.782942352E0,-2.275867310E0,3.102617945E0
5.572530167E0,1.035097504E0,1.191522217E0,-2.440674591E0,2.906551994E0
5.582549167E0,1.704954529E0,1.592238922E0,-6.522536316E0,6.927162097E0
5.592568167E0,4.088448029E0,2.533631287E0,-1.040456360E1,1.146253194E1
5.602587167E0,5.337600403E0,2.800675964E0,-8.381071472E0,1.032357123E1
5.612606167E0,3.698658600E0,2.274969177E0,-4.900958405E0,6.547896874E0
5.622625167E0,1.698817291E0,1.497036896E0,-2.512375488E0,3.382178329E0
5.632644167E0,4.784051514E-1,1.165775757E0,-1.211430817E0,1.747990054E0
5.642663167E0,-8.981323242E-4,1.355730743E0,-7.185058594E-3,1.355750080E0
5.652682167E0,6.286926270E-2,1.401236115E0,1.325792999E0,1.930062763E0
5.662702167E0,9.370513916E-2,1.264720001E0,1.726360016E0,2.142105562E0
5.672721167E0,3.472778320E-2,1.080602875E0,1.902843018E0,2.188542927E0
5.682740167E0,-3.667373657E-2,9.668394470E-1,2.257904663E0,2.456472460E0
5.692759167E0,-4.236190796E-2,9.699829102E-1,2.671494598E0,2.842454004E0
5.702778167E0,3.068618774E-2,9.952803040E-1,2.792892151E0,2.965092088E0
5.712797167E0,2.324665833E-1,1.109343109E0,2.580483856E0,2.818435697E0
5.722816167E0,3.125500488E-1,1.146765289E0,2.267484741E0,2.560126015E0
5.732835167E0,2.077679443E-1,1.057401123E0,1.799557800E0,2.097539733E0
5.742854167E0,8.307723999E-2,9.571096802E-1,1.381626892E0,1.682811230E0
5.752873167E0,1.583706665E-1,1.124162292E0,1.228495331E0,1.672729179E0
5.762892167E0,2.258802795E-1,1.340462494E0,1.304686890E0,1.884162806E0
5.772911167E0,2.853067017E-1,1.548679504E0,1.490450592E0,2.168236862E0
5.782930167E0,3.993695068E-1,1.692380676E0,1.656305695E0,2.401457247E0
5.792950167E0,4.409829712E-1,1.830243988E0,1.603914642E0,2.473216775E0
5.802969167E0,3.436853027E-1,1.929786987E0,1.357527008E0,2.384339947E0
5.812988167E0,2.183958435E-1,1.917512512E0,1.025218048E0,2.185319891E0
5.823007167E0,1.472937012E-1,1.817969513E0,8.418493652E-1,2.008835219E0
5.833026167E0,1.359173584E-1,1.616638184E0,7.650590515E-1,1.793685563E0
5.843045167E0,1.442999268E-1,1.392554169E0,7.282356262E-1,1.578086407E0
5.853064167E0,2.083666992E-1,1.171014862E0,7.235952759E-1,1.392222185E0
5.863083167E0,2.972817993E-1,9.256750488E-1,6.571334839E-1,1.173488466E0
5.873102167E0,3.567082214E-1,6.444099426E-1,4.836442566E-1,8.811451052E-1
5.883121167E0,3.177891541E-1,4.364923096E-1,2.499801636E-1,5.949836678E-1
5.893140167E0,2.451901245E-1,3.424877930E-1,1.422042847E-2,4.214478688E-1
5.903159167E0,2.564167786E-1,3.357518005E-1,-1.405577087E-1,4.452362355E-1
5.913179167E0,3.023712158E-1,3.350033569E-1,-1.959425354E-1,4.919848356E-1
5.923198167E0,4.653822327E-1,3.062631226E-1,-5.857319641E-1,8.083685153E-1
5.933217167E0,3.456312561E-1,-1.049467621E0,-6.864575043E0,6.952929869E0
5.943236167E0,1.752854919E-1,-8.840615845E0,-3.536051743E1,3.644932655E1
5.953255167E0,-2.966830444E-1,-5.017865295E0,-7.802973633E0,9.281885071E0
5.963274167E0,-5.938151550E-1,-4.203109589E0,1.600172424E-1,4.247864425E0
5.973293167E0,-3.335064697E-1,-1.228600113E1,-3.237767029E0,1.270984601E1
5.983312167E0,6.950047302E-1,-1.138622223E1,-3.931873627E0,1.206601502E1
5.993331167E0,2.277962952E0,-7.575895844E0,-4.990023193E0,9.353269188E0
6.003350167E0,5.435796204E0,-1.788974808E1,4.220323792E0,1.916773590E1
6.013369167E0,3.558325424E1,-4.483341843E1,1.597972000E1,5.942688652E1
6.023388167E0,5.933511200E0,-7.902711227E1,1.498369125E1,8.065359281E1
6.033408167E0,1.395637756E1,-7.842865677E1,6.409671021E0,7.991819918E1
6.043427167E0,8.225844269E0,-7.727081451E1,-2.705204498E1,8.228156797E1
6.053446167E0,3.115022278E0,-5.170877106E1,-1.100331848E1,5.295822302E1
6.063465167E0,-1.969903564E0,-2.463861374E1,-5.251679077E0,2.526899167E1
6.073484167E0,-2.506387939E0,-1.756282791E1,-9.551038513E0,2.014838062E1
6.083503167E0,-2.191592560E0,-1.320269485E1,-7.859406281E0,1.552045413E1
6.093522167E0,-1.870210876E0,-1.034528687E1,-4.648732910E0,1.149492787E1
6.103541167E0,-1.030906219E0,-7.657625885E0,-3.765569458E0,8.595435717E0
6.113560167E0,-6.584806824E-1,-4.388424225E0,-2.777025146E0,5.234857462E0
6.123579167E0,-4.822970581E-1,-2.590812378E0,-7.674540710E-1,2.744795982E0
6.133598167E0,2.911445618E-1,-1.883982239E0,4.761598206E-1,1.964912824E0
6.143617167E0,1.566043396E0,-7.453001404E-1,9.548643494E-1,1.979830837E0
6.153637167E0,2.990481262E0,1.435065765E0,1.639540558E0,3.700065563E0
6.163656167E0,4.499942322E0,2.171085205E0,3.893104248E0,6.333983940E0
6.173675167E0,4.748126221E0,2.507585449E0,3.918251953E0,6.647208870E0
6.183694167E0,4.475692749E0,2.729124756E0,-6.331832886E-2,5.242514352E0
6.193713167E0,4.372108154E0,2.644400940E0,-3.284918976E0,6.074444725E0
6.203732167E0,4.151766357E0,2.139800262E0,-1.490300903E0,4.902744724E0
6.213751167E0,4.005370789E0,1.880988464E0,-3.571572876E-1,4.439445245E0
6.223770167E0,3.482358398E0,1.635199585E0,-8.352630615E-2,3.848074108E0
6.233789167E0,2.946921844E0,1.627864838E0,-2.420466614E-1,3.375333891E0
6.243808167E0,2.728226624E0,1.761536865E0,-1.057101746E0,3.415215475E0
6.253827167E0,2.513722687E0,1.886976013E0,-1.762135620E0,3.603415347E0
6.263846167E0,2.425106964E0,2.102677460E0,-2.186203766E0,3.883540034E0
6.273866167E0,2.347717896E0,2.418969727E0,-2.359243927E0,4.114514037E0
6.283885167E0,2.150727539E0,2.760409698E0,-2.184856567E0,4.125419842E0
6.293904167E0,1.780397644E0,2.971919861E0,-1.774859161E0,3.892588917E0
6.303923167E0,1.400787048E0,3.232677612E0,-1.196611633E0,3.720791354E0
6.313942167E0,9.388476562E-1,3.121159515E0,-4.728666687E-1,3.293428992E0
6.323961167E0,8.503816223E-1,2.963088226E0,1.727407837E-1,3.087536254E0
6.333980042E0,9.616003418E-1,2.837798767E0,6.027964783E-1,3.056327969E0
6.343999042E0,8.843609619E-1,2.541714478E0,7.500901794E-1,2.793750539E0
6.354018042E0,5.882766724E-1,1.956880646E0,6.698570251E-1,2.150385951E0
6.364037042E0,3.722758484E-1,1.351090393E0,4.731660461E-1,1.479162150E0
6.374056042E0,2.107617188E-1,8.815168762E-1,3.195854187E-1,9.610553288E-1
6.384075042E0,5.493576050E-2,4.864883423E-1,2.639012146E-1,5.561768568E-1
6.394095042E0,-3.924838257E-1,-1.529219971E0,3.284170532E-1,1.612580241E0
6.404114042E0,-1.781295776E-2,-2.046244812E-1,2.248324585E-1,3.045293322E-1
6.414133042E0,4.056564331E-2,8.457412720E-2,1.565744019E-1,1.825209515E-1
6.424152042E0,2.544708252E-2,-2.130070496E-1,1.179547119E-1,2.448119099E-1
6.434171042E0,8.966354370E-2,-2.522254944E-1,-2.454895020E-2,2.688120199E-1
6.444190042E0,1.549278259E-1,-3.508703613E-1,-2.697390747E-1,4.689049052E-1
6.454209042E0,2.158511353E-1,-4.474195862E-1,-4.290078735E-1,6.563716586E-1
6.464228042E0,2.606080627E-1,-4.650828552E-1,-1.122665405E-1,5.448140974E-1
6.474247042E0,2.863545227E-1,-5.122348022E-1,5.358856201E-1,7.947054820E-1
6.484266042E0,3.432362366E-1,-5.694158936E-1,1.211879883E0,1.382280154E0
6.494285042E0,4.409829712E-1,-6.457571411E-1,1.695374451E0,1.867019763E0
6.504304042E0,9.508227539E-1,-1.668879547E0,2.014510803E0,2.783428934E0
6.514324042E0,7.929011536E-1,-1.741777954E0,2.213297424E0,2.925947397E0
6.524343042E0,7.381150818E-1,-7.845185852E-1,1.663041687E0,1.981411350E0
6.534362042E0,4.929249573E-1,-3.251538391E0,2.444566498E0,4.097728918E0
6.544381042E0,3.817062378E-2,-4.293671265E0,-3.132236481E0,5.314882435E0
6.554400042E0,-1.984722748E0,-1.094404175E1,-2.272484344E1,2.530078425E1
6.564419042E0,-3.331621857E0,-1.466425552E1,-3.158282318E0,1.536602881E1
6.574438042E0,-1.190175018E0,-2.968432114E1,1.169592819E1,3.192757702E1
6.584457042E0,2.556533661E0,-4.905479004E1,2.652783508E0,4.919294208E1
6.594476042E0,1.437251221E1,-6.408248978E1,-9.092541962E0,6.630089684E1
6.604495042E0,1.488414825E1,-7.215175964E1,8.491541748E0,7.415875249E1
6.614514042E0,1.086979614E1,-3.340408585E1,-8.324189758E0,3.610093565E1
6.624533042E0,-8.442443848E-1,-1.511002853E1,1.399948792E1,2.061580396E1
6.634553042E0,-2.104773102E0,-3.838946869E1,3.240162048E0,3.858341647E1
6.644572042E0,-1.438508606E-1,-7.289556290E1,-1.055619827E1,7.365607310E1
6.654591042E0,-6.527176666E0,-7.901184402E1,-1.284808228E1,8.031530831E1
6.664610042E0,-4.105213165E0,-6.062812317E1,-1.348919907E1,6.224612908E1
6.674629042E0,-8.075556793E0,-2.570170303E1,-5.930966492E0,2.758565787E1
6.684648042E0,-7.005731506E0,-1.704430618E1,3.312611389E-1,1.843090831E1
6.694667042E0,-5.122198334E0,-1.290496399E1,2.644550629E0,1.413395413E1
6.704686042E0,-2.167492676E0,-9.034163361E0,2.181862793E0,9.543304322E0
6.714705042E0,-4.790039062E-1,-6.584507446E0,1.329984283E0,6.734540908E0
6.724724042E0,8.819659424E-1,-4.313879242E0,2.665956116E-1,4.411177990E0
6.734743042E0,2.132016449E0,-1.499132538E0,-1.981279907E0,3.273891045E0
6.744762042E0,2.807112579E0,4.950205994E-1,-3.192561035E0,4.279879950E0
6.754782042E0,2.812052307E0,1.709594879E0,-2.011666718E0,3.857091626E0
6.764801042E0,2.715802460E0,2.523901520E0,-5.138813782E-1,3.742958182E0
6.774820042E0,2.899620209E0,3.236270142E0,7.857160950E-1,4.415720957E0
6.784839042E0,3.561394043E0,4.224964142E0,9.404942322E-1,5.605209981E0
6.794858042E0,4.272265778E0,5.190755768E0,-9.385482788E-2,6.723467040E0
6.804877042E0,4.780159607E0,5.700146484E0,-1.096619568E0,7.519585779E0
6.814896042E0,4.714745636E0,5.771398315E0,-9.336085510E-1,7.510625131E0
6.824915042E0,4.676425323E0,5.911506958E0,-7.261399841E-1,7.572459812E0
6.834934042E0,4.402045898E0,5.964945831E0,-5.138813782E-1,7.431195121E0
6.844953042E0,4.196373596E0,6.140081635E0,-1.142124939E-1,7.437956596E0
6.854972042E0,4.102818146E0,6.419101410E0,4.203259277E-1,7.629852786E0
6.864991042E0,4.567152557E0,6.732250214E0,1.196761322E0,8.222792292E0
6.875011042E0,4.857398987E0,5.528453522E0,2.064955902E0,7.643439418E0
6.885030042E0,4.404440918E0,3.919898529E0,2.562970276E0,6.429115096E0
6.895049042E0,3.752995605E0,2.906655579E0,2.384391632E0,5.312150800E0
6.905068042E0,3.253484344E0,2.226020966E0,1.707050171E0,4.295852652E0
6.915087042E0,2.831811218E0,1.733994141E0,1.089284821E0,3.494629004E0
6.925106042E0,2.250420227E0,1.488205261E0,7.508386230E-1,2.800518655E0
6.935125042E0,1.332379303E0,1.193168793E0,1.939965820E-1,1.799033365E0
6.945144042E0,2.695893860E-1,5.099894714E-1,-7.662565613E-1,9.591229409E-1
6.955163042E0,-4.306544495E-1,-1.706451416E-2,-9.581575012E-1,1.050628502E0
6.965182042E0,-3.507206726E-1,-4.905299377E-1,-9.141490173E-1,1.095122384E0
6.975201042E0,6.242019653E-2,-8.752299500E-1,-5.760021973E-1,1.049620063E0
6.985220042E0,3.381468201E-1,-1.000519409E0,-3.727249146E-2,1.056774147E0
6.995240042E0,3.755690002E-1,-8.798703003E-1,2.767744446E-1,9.959055741E-1
7.005259042E0,4.067042542E-1,-9.740245056E-1,3.966751099E-1,1.127600652E0
7.015278042E0,2.929408264E-1,-1.212628326E0,7.429051208E-1,1.451960676E0
7.025297042E0,-9.699829102E-2,-1.672023010E0,1.122515717E0,2.016212079E0
7.035316042E0,-1.407073975E-2,-2.757415924E0,1.293909302E0,3.045938582E0
7.045335042E0,8.506809998E-1,-4.053570557E0,1.811083832E0,4.520521769E0
7.055354042E0,1.280137939E0,-4.820874939E0,1.940564575E0,5.352137815E0
7.065373042E0,1.365310822E0,-5.950575714E0,2.607727203E0,6.638800052E0
7.075392042E0,2.002535706E0,-7.630681915E0,2.845732269E0,8.386635076E0
7.085411042E0,2.063309326E0,-9.522148590E0,2.846181335E0,1.015033533E1
7.095430042E0,1.714983673E0,-1.157617722E1,2.107168121E0,1.189071930E1
7.105449042E0,1.621278534E0,-1.350416794E1,1.235680389E0,1.365715936E1
7.115469042E0,1.163530426E0,-1.562076645E1,1.577719116E-1,1.566483449E1
7.125488042E0,-2.034120026E0,-1.857412491E1,-1.287322998E0,1.872946772E1
7.135507042E0,-7.660769348E0,-2.336191864E1,-3.303929443E0,2.480690588E1
7.145526042E0,-1.252026398E1,-2.909858917E1,-3.782334595E0,3.190283619E1
7.155545042E0,-1.601819000E1,-3.588966705E1,-1.353036346E0,3.932532669E1
7.165564042E0,-2.176444061E1,-4.543277206E1,-1.924098816E0,5.041358754E1
7.175583042E0,-2.589330460E1,-5.516777802E1,-4.132157135E0,6.108208965E1
7.185602042E0,-2.828443222E1,-5.388165253E1,-4.876858521E0,6.104936801E1
7.195621042E0,-2.654474991E1,-4.603003006E1,-2.985840912E0,5.321938238E1
7.205640042E0,-1.819077209E1,-3.563354965E1,-1.204844513E0,4.002631260E1
7.215659042E0,-1.433658691E1,-2.930830307E1,-6.891668701E-1,3.263417387E1
7.225678042E0,-1.279988251E1,-2.499487289E1,-8.653504944E-1,2.809500836E1
7.235698042E0,-1.083821182E1,-2.159319672E1,-9.827064514E-1,2.418054366E1
7.245717042E0,-8.434360657E0,-1.890628418E1,-5.800437927E-1,2.071044355E1
7.255736042E0,-6.190377045E0,-1.493264740E1,-5.867797852E-1,1.617556914E1
7.265755042E0,-4.213587799E0,-1.134700378E1,-6.875202942E-1,1.212359275E1
7.275774042E0,-2.442770233E0,-8.187523956E0,-6.523434448E-1,8.569027186E0
7.285793042E0,-1.283580780E0,-5.457950134E0,-2.782713318E-1,5.613754022E0
7.295812042E0,-3.382965088E-1,-2.885699158E0,-1.140628052E-1,2.907699173E0
7.305831042E0,5.213658142E-1,-1.131497040E0,-3.484753418E-1,1.293654872E0
7.315850042E0,3.484154663E0,5.463039551E0,-1.752854919E-1,6.481887060E0
7.325868833E0,6.583759003E0,1.113444580E1,7.424560547E-2,1.293550456E1
7.335887833E0,7.328759766E0,8.502618713E0,-8.192463684E-1,1.125506150E1
7.345906833E0,5.200186157E0,2.581381989E0,-7.920030212E-1,5.859414461E0
7.355926833E0,3.331771545E0,-7.348219299E-1,-9.824070740E-1,3.550463147E0
7.365945833E0,2.561473389E0,-9.689350891E-1,-1.049617310E0,2.932861678E0
7.375964833E0,2.207609253E0,-1.271455994E0,-8.822653198E-1,2.696021337E0
7.385983833E0,1.511706390E0,-4.079017639E-1,-1.356479187E0,2.071636031E0
7.396002833E0,1.697619781E0,2.653981018E-1,-1.395248566E0,2.213383752E0
7.406021833E0,1.603764954E0,4.989125061E-1,-1.523681488E0,2.267725952E0
7.416040833E0,1.524130554E0,7.921527100E-1,-1.638343048E0,2.373741310E0
7.426059833E0,1.445244598E0,1.032103729E0,-1.873354340E0,2.581361373E0
7.436078833E0,1.583407288E0,1.725761261E0,-3.794758759E0,4.459330062E0
7.446097833E0,1.889969788E0,2.913990326E0,-5.746100922E0,6.714238692E0
7.456116833E0,4.467609558E0,7.996371460E0,-5.002746735E0,1.043690407E1
7.466135833E0,7.806715851E0,9.830507355E0,-3.392545166E0,1.300357835E1
7.476155833E0,8.134983215E0,6.398594055E0,-1.317260742E0,1.043336636E1
7.486174833E0,4.498295746E0,9.198371887E-1,-7.129673767E-1,4.646405875E0
7.496193833E0,2.803370361E0,-2.388732605E0,-1.208437042E0,3.876241598E0
7.506212833E0,2.302062836E0,-3.095712433E0,-1.056952057E0,4.000009552E0
7.516231833E0,1.689237213E0,-4.510121155E0,-1.226848755E0,4.969896685E0
7.526250833E0,1.186283112E0,-5.023104401E0,1.125210114E0,5.282512966E0
7.536269833E0,-9.139993286E-1,-5.659580841E0,1.939965820E-1,5.736190787E0
7.546288833E0,-2.392923889E0,-6.292165375E0,-2.637215881E0,7.229961096E0
7.556307833E0,-1.888921967E0,-6.890171814E0,-1.037043457E0,7.219276484E0
7.566326833E0,-2.612517242E0,-7.556735687E0,-3.396437073E0,8.687075767E0
7.576345833E0,-4.207450562E0,-8.391250305E0,-1.473236389E0,9.501902303E0
7.586365833E0,-5.764961700E0,-8.905580750E0,-4.033811646E0,1.134970433E1
7.596384833E0,-5.444029083E0,-9.227112122E0,-4.240531769E0,1.152211614E1
7.606403833E0,-4.950355682E0,-7.697443085E0,-5.016069031E0,1.043635952E1
7.616422833E0,-3.494183807E0,-4.649181976E0,-3.215313721E0,6.645483869E0
7.626441833E0,-2.370769958E0,-2.956651611E0,-2.596949615E0,4.594179606E0
7.636460833E0,-2.138003998E0,-2.586321716E0,-2.736908569E0,4.330218197E0
7.646479833E0,-2.676134949E0,-4.419409790E0,-3.461401978E0,6.218857195E0
7.656498833E0,-3.142565002E0,-7.032076721E0,-3.809877319E0,8.593077621E0
7.666517833E0,-3.389850769E0,-9.404044189E0,-3.849245453E0,1.071185446E1
7.676536833E0,-3.200195160E0,-1.168095932E1,-2.728825378E0,1.241501299E1
7.686555833E0,-1.317709808E0,-1.438149353E1,6.706054688E-2,1.444189089E1
7.696574833E0,-1.974992981E0,-1.906944489E1,2.194436646E0,1.929662866E1
7.706594833E0,-1.055021072E1,-2.786575287E1,7.526348877E-1,2.980559660E1
7.716613833E0,-1.877859970E1,-3.982378601E1,-1.407073975E-1,4.402941673E1
7.726632833E0,-2.208672043E1,-5.074133286E1,-4.153712311E0,5.549558005E1
7.736651833E0,-2.399420380E1,-5.749124634E1,-5.495522003E0,6.253931550E1
7.746670833E0,-2.589689713E1,-5.882886475E1,-5.309608612E0,6.449555451E1
7.756689833E0,-2.568359070E1,-5.519083008E1,-5.078489227E0,6.108572344E1
7.766708833E0,-2.205708206E1,-4.788018265E1,-8.471633148E0,5.339283967E1
7.776727833E0,-1.748888168E1,-3.798785385E1,-1.190115143E1,4.348074779E1
7.786746833E0,-1.143561951E1,-3.049817871E1,-1.332424210E1,3.519158601E1
7.796765833E0,-6.348448334E0,-2.543884964E1,-1.302396652E1,2.927561393E1
7.806784833E0,-1.107397156E0,-1.952943832E1,-1.092967163E1,2.240720892E1
7.816803833E0,3.710933075E0,-1.377226044E1,-8.080496521E0,1.639330979E1
7.826823833E0,9.247020721E0,-9.029972076E0,-5.886808319E0,1.420219350E1
7.836842833E0,1.511436951E1,-9.711804199E-1,-4.129612427E0,1.569844119E1
7.846861833E0,2.036694672E1,6.675967255E0,-3.060834961E0,2.165062974E1
7.856880833E0,1.833073105E1,6.099665680E0,-2.240989838E0,1.944848728E1
7.866899833E0,1.253717880E1,7.657775574E0,-7.457492065E-1,1.470981036E1
7.876918833E0,3.557801514E0,7.671397247E0,-2.661465454E-1,8.460444511E0
7.886937833E0,-1.541195068E0,7.592361603E0,2.490970001E0,8.137823326E0
7.896956833E0,-2.932551727E0,8.200995941E0,2.279609528E0,9.002933614E0
7.906975833E0,-3.534300385E0,9.595496063E0,-8.271798706E-1,1.025909599E1
7.916994833E0,-6.104306030E-1,2.387265656E1,-3.221151581E0,2.409672538E1
7.927013833E0,-1.394500122E0,3.102253830E1,-8.800199890E-1,3.106633143E1
7.937032833E0,-5.556894379E0,8.972341919E0,-4.248165894E-1,1.056231337E1
7.947052833E0,-4.660857697E0,-2.022893372E0,-6.929390259E0,8.592563146E0
7.957071833E0,-4.770878906E0,-5.701643372E0,-9.675878906E0,1.220215781E1
7.967090833E0,-4.718787231E0,-7.247478790E0,-7.830965424E0,1.166691567E1
7.977109833E0,-4.754263458E0,-8.616232452E0,-4.918322296E0,1.100147158E1
7.987128833E0,-3.970493317E0,-1.002630020E1,-2.900518341E0,1.116711778E1
7.997147833E0,-2.590812378E0,-9.753567352E0,1.965412903E-1,1.009371157E1
8.007166833E0,-1.304387512E0,-8.728948059E0,2.311343536E0,9.123500970E0
8.017185833E0,1.441652069E0,-7.902816010E0,4.632117462E0,9.273045549E0
8.027204833E0,4.467160492E0,-5.751789093E0,3.462599487E0,8.064006191E0
8.037223833E0,6.370901642E0,-2.481090546E0,1.037342834E0,6.915220762E0
8.047242833E0,6.787485352E0,1.448986816E-1,2.906356201E0,7.384975247E0
8.057261833E0,6.165079651E0,1.381626892E0,4.892426147E0,7.990803062E0
8.067281833E0,4.039948883E0,1.983225861E0,6.033503265E0,7.527119864E0
8.077300833E0,1.124162292E0,2.689307556E0,2.684068451E0,3.962365385E0
8.087319833E0,-2.593207397E0,3.869154053E0,6.692582703E-1,4.705633254E0
8.097338833E0,-5.442083130E0,6.805597687E0,1.650168457E0,8.868792737E0
8.107357833E0,-5.671106873E0,-2.123783569E0,1.921254730E0,6.353198372E0
8.117376833E0,-3.221900024E0,-7.986492004E0,-1.258882141E0,8.703417636E0
8.127395833E0,-2.870281219E0,-3.962859192E0,-1.009800110E0,4.996244942E0
8.137414833E0,-3.903133392E0,-1.295106812E0,-2.309247894E0,4.716394573E0
8.147433833E0,-3.646566925E0,-1.853146362E0,-4.513264618E0,6.091072097E0
8.157452833E0,-2.002236328E0,-3.862118683E0,-4.475692749E0,6.241533194E0
8.167471833E0,7.337741089E-1,-5.409151611E0,-4.431833954E0,7.031251510E0
8.177490833E0,1.523082733E0,-5.876779175E0,-6.291716309E0,8.743112065E0
8.187510833E0,-1.351689148E0,-5.150788879E0,-8.309520264E0,9.869438517E0
8.197529833E0,-1.188827820E0,-4.642745361E0,-1.180894318E1,1.274439230E1
8.207548833E0,1.737736359E0,-5.073399811E0,-1.285287231E1,1.392678858E1
8.217567833E0,1.958527222E0,-3.706891479E0,-1.050979477E1,1.131515176E1
8.227586833E0,2.866389313E0,-3.811074829E-1,-7.864346008E0,8.379103099E0
8.237605833E0,3.166964264E0,-4.633764038E0,-9.468110962E0,1.100665967E1
8.247624833E0,1.163530426E0,-9.793683929E0,-3.942202148E0,1.062125255E1
8.257643833E0,-1.570084991E0,-1.186492676E1,-3.494632874E0,1.246812387E1
8.267662833E0,-4.644092560E0,-1.624062744E1,-6.070626068E0,1.794931966E1
8.277681833E0,-8.760831757E0,-2.684427704E1,-1.043390259E1,3.010371582E1
8.287700833E0,-1.423360107E1,-4.118849808E1,-1.489387802E1,4.605339701E1
8.297720833E0,-1.807910431E1,-5.794719818E1,-1.536599625E1,6.261665617E1
8.307739833E0,-1.731105148E1,-6.835954559E1,-9.815388794E0,7.119720384E1
8.317758833E0,-1.524474838E1,-7.159836044E1,-2.166145477E0,7.323537231E1
8.327778292E0,-1.474164459E1,-6.661133102E1,-1.419947205E0,6.823783229E1
8.337797292E0,-1.515792892E1,-4.685062363E1,-8.351283417E0,4.994484636E1
8.347816292E0,-1.098745148E1,-2.911251022E1,-1.346390167E1,3.390485201E1
8.357835292E0,-8.305478668E0,-2.356115433E1,-1.416414551E1,2.871814735E1
8.367854292E0,-6.837032318E0,-2.023596909E1,-1.389186172E1,2.547986024E1
8.377873292E0,-5.365442505E0,-1.666978500E1,-1.306977127E1,2.185151314E1
8.387892292E0,-4.443809052E0,-1.206281525E1,-1.358949051E1,1.870650162E1
8.397911292E0,-4.167633362E0,-7.040159912E0,-1.737601639E1,1.920570137E1
8.407930292E0,-3.672163696E0,-3.449875946E0,-1.708322525E1,1.781075560E1
8.417950292E0,-2.984493713E0,-2.277364197E0,-1.085183350E1,1.148285159E1
8.427969292E0,-2.062560883E0,-1.433419189E0,-5.647755432E0,6.181099367E0
8.437988292E0,-3.237767029E-1,-3.736230469E-1,-2.246079254E0,2.299847288E0
8.448007292E0,1.130598907E0,4.276606750E-1,-5.989045715E-1,1.349012316E0
8.458026292E0,1.720522156E0,9.096583557E-1,1.670526123E-1,1.953351322E0
8.468045292E0,2.566862183E0,1.285975800E0,1.187630310E0,3.106924681E0
8.478064292E0,3.545077972E0,1.561403046E0,1.062490540E0,4.016770276E0
8.488083292E0,4.706812134E0,1.915267181E0,8.427474976E-1,5.150975848E0
8.498102292E0,5.597759399E0,2.580034790E0,1.091530151E0,6.259626817E0
8.508121292E0,6.165678406E0,3.368145905E0,1.897454224E0,7.277384803E0
8.518140292E0,5.838458862E0,3.677851868E0,2.116598511E0,7.217630186E0
8.528159292E0,5.653293915E0,3.813170471E0,2.118993530E0,7.140737687E0
8.538179292E0,5.150938568E0,3.518283691E0,2.811453552E0,6.842131199E0
8.548198292E0,4.794679413E0,3.386557617E0,3.464695129E0,6.816291918E0
8.558217292E0,5.138664093E0,3.165317688E0,3.305576019E0,6.881274413E0
8.568236292E0,4.841232605E0,2.694846039E0,2.361938324E0,6.023162040E0
8.578255292E0,4.146377563E0,2.259102173E0,1.403481445E0,4.926027780E0
8.588274292E0,3.663930817E0,1.595981140E0,7.183561707E-1,4.060490170E0
8.598293292E0,3.371888123E0,1.084794159E0,-4.625381470E-2,3.542392877E0
8.608312292E0,2.926414490E0,8.346643066E-1,-1.387913818E0,3.344678017E0
8.618331292E0,1.460662537E0,1.007704468E0,-5.801485748E0,6.066814669E0
8.628350292E0,-1.534309387E-1,1.289568329E0,-7.907606049E0,8.013536108E0
8.638369292E0,1.886077881E-1,1.112187195E0,-4.454586639E0,4.595201343E0
8.648388292E0,4.659809875E-1,7.843688965E-1,-2.105970612E0,2.295100229E0
8.658408292E0,3.025209045E-1,1.640588379E-1,-7.017407227E-1,7.815844432E-1
8.668427292E0,4.480183411E-1,2.612068176E-1,5.373825073E-2,5.213801253E-1
8.678446292E0,5.248086548E-1,5.502557373E-1,2.992277527E-1,8.171552781E-1
8.688465292E0,3.547622681E-1,5.134323120E-1,3.359014893E-1,7.087304257E-1
8.698484292E0,2.160008240E-1,4.933740234E-1,3.254232788E-1,6.292651217E-1
8.708503292E0,6.960525513E-2,4.864883423E-1,2.574645996E-1,5.548007018E-1
8.718522292E0,-6.002517700E-2,4.706213379E-1,1.812730408E-1,5.078852044E-1
8.728541292E0,-1.200503540E-1,4.293072510E-1,8.666976929E-2,4.541238291E-1
8.738560292E0,-1.737886047E-1,4.191284180E-1,-1.571731567E-2,4.540023611E-1
8.748579292E0,-2.285746765E-1,4.206253052E-1,-1.447489929E-1,5.001242856E-1
8.758598292E0,-2.562670898E-1,3.902384949E-1,-2.830613708E-1,5.459694533E-1
8.768618292E0,-2.586621094E-1,3.433859253E-1,-3.239263916E-1,5.382827210E-1
8.778637292E0,-2.242337036E-1,3.007246399E-1,-3.468287659E-1,5.108877134E-1
8.788656292E0,-1.315763855E-1,1.511856079E-2,-1.158890076E0,1.166433506E0
8.798675292E0,7.725434875E-1,-4.280049591E0,-1.448313217E1,1.512206221E1
8.808694292E0,1.391506348E0,-6.163283386E0,-1.667352722E1,1.783055978E1
8.818713292E0,8.493338013E-1,-2.688858490E0,-8.547225952E-2,2.821104995E0
8.828732292E0,2.658771057E0,-4.324058075E0,3.342698822E0,6.077843136E0
8.838751292E0,4.945415955E0,-8.995543671E0,8.275391235E0,1.318556199E1
8.848770292E0,4.478836212E0,-1.440095306E1,1.116752701E1,1.876595541E1
8.858789292E0,7.500752106E0,-4.077386032E1,8.434660034E0,4.230735701E1
8.868808292E0,8.540789337E0,-7.752872818E1,1.393152924E0,7.801018940E1
8.878827292E0,6.624324646E0,-7.876904892E1,3.003803558E0,7.910415653E1
8.888847292E0,1.002689896E1,-7.823076828E1,5.633834381E0,7.907168835E1
8.898866292E0,5.291645966E0,-7.746885269E1,7.897576904E-1,7.765338609E1
8.908885292E0,-3.154540100E0,-5.214601181E1,-1.302411621E1,5.384036844E1
8.918904292E0,-7.648045807E0,-1.821936264E1,-3.217154892E1,3.775508363E1
8.928923292E0,-6.562503204E0,-9.368567963E0,-2.024569885E1,2.325349083E1
8.938942292E0,-3.966302032E0,-8.534203033E0,-1.959724731E0,9.612736044E0
8.948961292E0,-2.920277252E0,-5.864205322E0,4.853207703E0,8.152947215E0
8.958980292E0,-2.549797668E0,-2.381697235E0,6.581813049E0,7.449443797E0
8.968999292E0,-2.443967743E0,-1.721420288E-1,3.760330353E0,4.488061449E0
8.979018292E0,-3.197800140E0,1.109343109E0,-2.800675964E-1,3.396322383E0
8.989037292E0,-2.734363861E0,1.861977997E0,-2.884950714E0,4.389379046E0
8.999057292E0,-1.377285919E0,2.675087128E0,-5.201084290E0,6.008684168E0
9.009076292E0,-6.494993591E-1,2.832110596E0,-6.520590363E0,7.138683248E0
9.019095292E0,-2.781216431E-1,1.942360840E0,-4.954846344E0,5.329223168E0
9.029114292E0,2.710862732E-1,8.819659424E-1,-2.889141998E0,3.032901775E0
9.039133292E0,7.943980408E-1,5.231620789E-1,-2.275268555E0,2.466092821E0
9.049152292E0,1.497485962E0,4.379891968E-1,-1.019679565E0,1.863879062E0
9.059171292E0,2.890638885E0,6.578819275E-1,-5.186714172E-1,3.009588317E0
9.069190292E0,3.017275543E0,6.782395935E-1,-2.260299683E-1,3.100814441E0
9.079209292E0,2.640958099E0,6.517446899E-1,-5.572911072E-1,2.776689432E0
9.089228292E0,2.416425018E0,5.909710693E-1,-3.107537842E-1,2.506975187E0
9.099247292E0,2.099983063E0,5.725593567E-1,2.246827698E-1,2.188203699E0
9.109266292E0,1.936522980E0,6.258485413E-1,6.926097107E-1,2.149771118E0
9.119286292E0,1.811981964E0,6.819818115E-1,1.047072601E0,2.201076751E0
9.129305292E0,1.712888031E0,7.286846924E-1,1.290765839E0,2.265180619E0
9.139324292E0,1.767075348E0,7.839198303E-1,1.488504639E0,2.439822052E0
9.149343292E0,1.785037994E0,9.214837646E-1,1.707948303E0,2.636774616E0
9.159362292E0,1.758992157E0,9.954299927E-1,1.767075348E0,2.684676808E0
9.169381292E0,1.640139313E0,1.176253967E0,1.700763245E0,2.639360903E0
9.179400292E0,1.491199036E0,1.260528717E0,1.536255341E0,2.484489421E0
9.189419292E0,1.301393738E0,1.213825836E0,1.304686890E0,2.206627903E0
9.199438292E0,1.162482605E0,1.122665405E0,1.189426575E0,2.006608830E0
9.209457292E0,1.014440460E0,1.098266144E0,1.065184937E0,1.835727899E0
9.219476292E0,7.479945374E-1,1.055006104E0,9.440867615E-1,1.601197527E0
9.229496292E0,5.201683044E-1,1.087039490E0,8.288264465E-1,1.462594679E0
9.239515292E0,3.463796997E-1,1.311273193E0,7.451504517E-1,1.547470672E0
9.249534292E0,2.152523804E-1,1.512454834E0,6.468049622E-1,1.658978563E0
9.259553292E0,1.679507446E-1,1.587299194E0,5.721102905E-1,1.695593221E0
9.269572292E0,2.242337036E-1,1.025517426E0,4.474195862E-1,1.141118324E0
9.279591292E0,2.294728088E-1,6.890171814E-1,5.613327026E-2,7.283909598E-1
9.289610292E0,1.692979431E-1,9.810598755E-1,-3.266207886E-1,1.047769733E0
9.299629292E0,9.804611206E-2,1.415755920E0,-5.005590820E-1,1.504837952E0
9.309648292E0,-1.706451416E-2,2.168989563E0,-5.860313416E-1,2.246828800E0
9.319667292E0,-2.442919922E-1,2.385738831E0,-6.547384644E-1,2.485982864E0
9.329685708E0,-1.981878662E-1,1.051114197E0,-9.848020935E-1,1.453944514E0
9.339704708E0,4.550537109E-1,-1.434167633E0,-6.516399078E0,6.687852243E0
9.349724708E0,2.595303040E0,-8.794661407E0,-3.123629379E1,3.255438092E1
9.359743708E0,3.060984650E0,-9.005273438E0,-1.353680008E1,1.654416916E1
9.369762708E0,4.402045898E0,-1.672995987E1,-3.187022552E0,1.759052808E1
9.379781708E0,4.594994659E0,-1.305046143E1,4.001927948E0,1.440291452E1
9.389800708E0,5.379962311E0,-7.370223541E0,9.926008759E0,1.348294624E1
9.399819708E0,6.300398254E0,-1.330852478E1,1.189471481E1,1.892871075E1
9.409838708E0,5.295687561E0,-2.486988281E1,8.686286774E0,2.687018712E1
9.419857708E0,1.958078156E0,-6.633515533E1,5.994584198E0,6.663424002E1
9.429876708E0,-1.113534393E0,-7.979411728E1,7.374863892E0,8.014193489E1
9.439895708E0,5.871240692E0,-7.799515823E1,1.032522858E1,7.889440107E1
9.449914708E0,8.293054504E0,-7.837581665E1,1.029903305E1,7.948341632E1
9.459934708E0,5.832920380E0,-6.473109100E1,5.437742157E0,6.522044267E1
9.469953708E0,-7.643555145E0,-3.205928238E1,-3.336127487E1,4.689558810E1
9.479972708E0,-1.513502655E1,-1.128817612E1,-5.543646927E1,5.856359000E1
9.489991708E0,-4.240531769E0,-9.723479919E0,-8.290060730E0,1.346303377E1
9.500010708E0,1.898052979E-1,-8.655450897E0,6.759942627E0,1.098406485E1
9.510029708E0,5.514532471E-1,-3.794160004E0,8.849297791E0,9.644160005E0
9.520048708E0,-3.447331238E-1,-5.438191223E-1,8.473579102E0,8.498006999E0
9.530067708E0,-2.719844055E-1,7.497908020E-1,5.048102417E0,5.110723997E0
9.540086708E0,2.291734314E-1,1.121018829E0,2.044598236E0,2.342986476E0
9.550105708E0,7.888595581E-1,9.952803040E-1,4.592449951E-1,1.350477046E0
9.560124708E0,9.502239990E-1,7.667056274E-1,1.098715210E-1,1.225901676E0
9.570144708E0,1.065184937E0,6.782395935E-1,3.832031250E-2,1.263367065E0
9.580163708E0,1.894909515E0,7.559280396E-1,-1.706451416E-2,2.040196184E0
9.590182708E0,2.960543518E0,9.955796814E-1,-3.914360046E-1,3.147891194E0
9.600201708E0,3.565136261E0,1.222507782E0,-1.008153534E0,3.901422226E0
9.610220708E0,3.770958252E0,1.481020203E0,-1.708547058E0,4.396894362E0
9.620239708E0,3.734733582E0,1.836680603E0,-3.779041443E0,5.621635419E0
9.630258708E0,2.955154724E0,1.646426239E0,-4.477189636E0,5.611495865E0
9.640277708E0,1.892065430E0,1.096918945E0,-2.857258301E0,3.598203407E0
9.650296708E0,1.238225098E0,5.530998230E-1,-7.753875732E-1,1.562160906E0
9.660315708E0,9.279203796E-1,2.405497742E-1,5.709127808E-1,1.115724799E0
9.670334708E0,6.830296326E-1,2.209405518E-1,1.112636261E0,1.324123731E0
9.680353708E0,5.469625854E-1,3.281176758E-1,1.481469269E0,1.612941559E0
9.690373708E0,3.864962769E-1,4.282594299E-1,1.767524414E0,1.859281599E0
9.700392708E0,1.543290710E-1,4.534071350E-1,1.819616089E0,1.881594591E0
9.710411708E0,-3.802093506E-2,4.480183411E-1,1.855840759E0,1.909531605E0
9.720430708E0,-1.898052979E-1,6.472540283E-1,1.745669861E0,1.871450531E0
9.730449708E0,-4.767585754E-1,1.377585297E0,1.306632843E0,1.957633616E0
9.740468708E0,-1.025367737E0,2.721939697E0,1.109043732E0,3.112926711E0
9.750487708E0,-1.400936737E0,3.950435028E0,8.211923218E-1,4.271172846E0
9.760506708E0,-1.350641327E0,4.399351501E0,6.541397095E-1,4.648271118E0
9.770525708E0,-1.178648987E0,4.581971741E0,1.014590149E0,4.838705575E0
9.780544708E0,-1.496138763E0,5.849236450E0,1.376687164E0,6.192516919E0
9.790563708E0,-1.417103119E0,7.204218750E0,1.582509155E0,7.510877730E0
9.800583708E0,-7.363188171E-1,7.512278137E0,1.796264648E0,7.759062759E0
9.810602708E0,1.460961914E-1,6.783593445E0,1.675016785E0,6.988860090E0
9.820621708E0,7.200027466E-1,5.860912170E0,1.091081085E0,6.004927423E0
9.830640708E0,1.009351044E0,5.040019226E0,3.338058472E-1,5.150923186E0
9.840659708E0,1.190624084E0,4.227359161E0,-2.661465454E-1,4.399884677E0
9.850678708E0,1.653461609E0,3.536695404E0,-6.659651184E-1,3.960512494E0
9.860697708E0,2.214794312E0,2.878663788E0,-1.135688324E0,3.805496947E0
9.870716708E0,1.780397644E0,1.670975189E0,-1.316811676E0,2.774160566E0
9.880735708E0,9.858499146E-1,5.676196289E-1,-1.258133698E0,1.696169950E0
9.890754708E0,4.779560852E-1,8.352630615E-2,-1.228195953E0,1.320561988E0
9.900773708E0,9.535171509E-2,-1.288819885E0,-5.254223785E0,5.410823988E0
9.910793708E0,-2.977308655E-1,-1.383977005E1,-4.068883713E1,4.297917339E1
9.920812708E0,1.831142120E0,-1.204694824E1,-1.633463196E1,2.037896574E1
9.930831708E0,4.957391052E0,-7.272776184E0,4.968468018E0,1.010715954E1
9.940850708E0,8.890162811E0,-1.803883804E1,2.926264801E0,2.032234481E1
9.950869708E0,5.518424377E0,-1.422731415E1,1.255020172E1,1.975796140E1
9.960888708E0,3.892655182E0,-1.486603592E1,9.113348694E0,1.786630663E1
9.970907708E0,4.492308197E0,-3.047392914E1,-7.354206848E-1,3.081204365E1
9.980926708E0,7.698640594E0,-6.298407394E1,2.169588318E0,6.348991850E1
9.990945708E0,7.569758606E0,-7.959757599E1,7.263345795E0,8.028593613E1
1.000096471E1,1.842353806E1,-7.816535431E1,1.104418350E1,8.106308258E1
1.001098371E1,1.979992584E1,-7.839976685E1,1.030457153E1,8.151530347E1
1.002100271E1,1.026640091E1,-6.678347305E1,1.606309662E0,6.758706601E1
1.003102271E1,5.971083069E-1,-3.380839508E1,-1.479687973E1,3.690950780E1
1.004104171E1,-6.712940369E0,-1.468461319E1,-2.866284531E1,3.289772232E1
1.005106071E1,-5.572761383E0,-7.922425232E0,-1.334519852E1,1.648983973E1
1.006107971E1,-3.012036438E0,-5.343887329E0,-2.068698120E0,6.473716645E0
1.007109871E1,-1.902244263E0,-2.925516357E0,1.748513947E0,3.903137227E0
1.008111771E1,-1.730700989E0,-2.064207458E-1,3.882027283E0,4.255357947E0
1.009113671E1,-1.513053589E0,1.505120087E0,3.596570892E0,4.182109494E0
1.010115571E1,-7.337741089E-1,1.887275391E0,1.730850677E0,2.663846263E0
1.011117471E1,-3.487747192E-1,1.586850128E0,-1.191522217E-1,1.629090048E0
1.012119371E1,-8.921447754E-2,1.045875092E0,-9.083111572E-1,1.388107737E0
1.013121271E1,1.329235840E-1,6.442602539E-1,-9.584568787E-1,1.162488513E0
1.014123271E1,7.580236816E-1,5.574407959E-1,-3.213816833E-1,9.942969020E-1
1.015125171E1,2.086361389E0,8.425978088E-1,-2.200424194E-2,2.250190903E0
1.016127071E1,2.634820862E0,8.089178467E-1,-5.004093933E-1,2.801256614E0
1.017128971E1,2.939587097E0,9.003776550E-1,-1.544488220E0,3.440537180E0
1.018130871E1,2.969225464E0,1.008602600E0,-2.327210541E0,3.905059278E0
1.019132771E1,2.684966583E0,1.089434509E0,-2.723735962E0,3.976763847E0
1.020134671E1,2.387086029E0,1.077160034E0,-2.628683624E0,3.710583653E0
1.021136571E1,2.141895905E0,1.269809418E0,-2.525248718E0,3.546408763E0
1.022138471E1,1.855541382E0,1.493294678E0,-1.972298584E0,3.092397859E0
1.023140371E1,1.454974365E0,1.684297485E0,-1.408121796E0,2.633745510E0
1.024142271E1,9.366023254E-1,1.351240082E0,-6.349795532E-1,1.762462115E0
1.025144271E1,5.623805237E-1,1.010548553E0,9.041198730E-2,1.160023517E0
1.026146171E1,4.968168640E-1,8.884025574E-1,4.751119995E-1,1.123306509E0
1.027148071E1,5.800437927E-1,9.327104187E-1,7.482939148E-1,1.329038491E0
1.028149971E1,6.562353516E-1,1.149609375E0,9.156459045E-1,1.609550861E0
1.029151871E1,5.466632080E-1,1.155297546E0,9.728269958E-1,1.606220859E0
1.030153771E1,3.752696228E-1,8.241860962E-1,9.677375793E-1,1.325377695E0
1.031155671E1,3.302133179E-1,8.586145020E-1,8.873547363E-1,1.278146363E0
1.032157571E1,2.848576355E-1,1.149010620E0,6.731501770E-1,1.361800440E0
1.033159504E1,1.833686829E-1,1.489253082E0,4.511618042E-1,1.566858574E0
1.034161404E1,2.993774414E-2,1.680854645E0,3.126997375E-1,1.709956061E0
1.035163304E1,-1.365161133E-1,1.936522980E0,9.879455566E-2,1.943841111E0
1.036165304E1,-1.565744019E-1,1.996099091E0,1.317260742E-2,2.002273867E0
1.037167204E1,-2.160008240E-1,3.110681305E0,1.844165039E-1,3.123620333E0
1.038169104E1,-3.421884155E-1,4.618046722E0,3.182382202E-1,4.641629456E0
1.039171004E1,-2.652484131E-1,5.808371429E0,7.216493225E-1,5.859036877E0
1.040172904E1,3.742218018E-1,5.192552032E0,7.011419678E-1,5.253021857E0
1.041174804E1,9.993218994E-1,3.467688904E0,3.137475586E-1,3.622422963E0
1.042176704E1,1.054706726E0,9.680369568E-1,-4.034111023E-1,1.487360866E0
1.043178604E1,2.478695526E0,-4.367168427E0,-1.639480682E1,1.714659682E1
1.044180504E1,5.697901154E0,-1.598016907E1,-4.462265671E1,4.773901311E1
1.045182404E1,2.787503357E0,-1.007899063E1,-5.202880554E0,1.168016238E1
1.046184304E1,4.888683929E0,-1.693413528E1,2.058219910E-1,1.762686958E1
1.047186304E1,7.187902679E0,-1.492920456E1,-1.151705017E0,1.660944063E1
1.048188204E1,9.391320648E0,-1.118384308E1,4.324806519E0,1.523086343E1
1.049190104E1,1.303459442E1,-1.316138077E1,3.071762238E0,1.877653639E1
1.050192004E1,1.260992752E1,-1.501677246E1,3.753294983E0,1.996499312E1
1.051193904E1,6.747817841E0,-2.023282562E1,2.784958649E0,2.150944613E1
1.052195804E1,1.013692017E0,-4.693789215E1,4.425547028E0,4.715695874E1
1.053197704E1,-1.182540894E-1,-7.805248901E1,5.406307526E0,7.823958836E1
1.054199604E1,7.148534546E0,-7.866576370E1,1.064346680E1,7.970374715E1
1.055201504E1,5.635780334E0,-7.833195786E1,5.735323334E0,7.874358117E1
1.056203404E1,1.109941864E0,-6.855533844E1,-3.762425995E0,6.866747592E1
1.057205304E1,-6.903793488E0,-3.495935165E1,-1.962493973E1,4.068116139E1
1.058207204E1,-1.283206558E1,-1.572914108E1,-2.972548553E1,3.599544800E1
1.059209204E1,-7.050937500E0,-9.903854828E0,-9.712852020E0,1.556089825E1
1.060211104E1,-3.264860687E0,-6.585405579E0,1.616638184E-1,7.352075702E0
1.061213004E1,-1.220711517E0,-4.260440369E0,1.582359467E0,4.705884638E0
1.062214904E1,-5.878276062E-1,-1.820813599E0,2.808160400E0,3.398038889E0
1.063216804E1,-7.854167175E-1,1.733395386E-1,3.407364349E0,3.501008116E0
1.064218704E1,-6.869215393E-1,1.468296661E0,3.358266449E0,3.729036046E0
1.065220604E1,-3.365002441E-1,1.976789246E0,1.811832275E0,2.702529247E0
1.066222504E1,-6.795867920E-2,1.710043945E0,-5.137316895E-1,1.786837689E0
1.067224404E1,-3.275189209E-1,1.560654602E0,-2.260599060E0,2.766445290E0
1.068226304E1,-2.083666992E-1,1.741029510E0,-3.852987671E0,4.233215613E0
1.069228204E1,-8.232879639E-3,2.100881195E0,-5.901328125E0,6.264139463E0
1.070230204E1,5.688171387E-2,2.138752441E0,-6.723568268E0,7.055768405E0
1.071232104E1,1.158590698E-1,1.894610138E0,-5.028642883E0,5.374962339E0
1.072234004E1,5.462141418E-1,1.726360016E0,-3.184328156E0,3.663142721E0
1.073235904E1,7.723937988E-1,1.346599731E0,-2.097438354E0,2.609438765E0
1.074237804E1,6.325845337E-1,8.960366821E-1,-1.618284760E0,1.954965598E0
1.075239704E1,4.959187317E-1,6.503974915E-1,-1.449136505E0,1.664015894E0
1.076241604E1,6.060896301E-1,8.418493652E-1,-2.698588257E0,2.891095566E0
1.077243504E1,1.131946106E0,1.410217438E0,-6.679859161E0,6.920298666E0
1.078245404E1,1.547182617E0,1.494791565E0,-7.355104980E0,7.663272483E0
1.079247304E1,1.993554382E0,1.228495331E0,-3.099005585E0,3.884236793E0
1.080249304E1,2.802172852E0,1.438957672E0,2.897973633E-1,3.163345442E0
1.081251204E1,2.609523468E0,1.430126038E0,2.498604126E0,3.885601085E0
1.082253104E1,2.020348663E0,1.148411865E0,3.786675568E0,4.442923631E0
1.083255004E1,1.661395111E0,1.042132874E0,4.002077637E0,4.456781356E0
1.084256904E1,1.065484314E0,9.065148926E-1,3.808979187E0,4.057751658E0
1.085258804E1,4.550537109E-1,7.729925537E-1,3.313958588E0,3.433207376E0
1.086260704E1,9.295669556E-2,7.066804504E-1,3.036136322E0,3.118679524E0
1.087262604E1,-4.640350342E-3,7.084767151E-1,3.059338074E0,3.140304163E0
1.088264504E1,-4.520599365E-2,6.695576477E-1,2.497107239E0,2.585709881E0
1.089266404E1,-5.044509888E-2,6.183641052E-1,1.888173523E0,1.987490409E0
1.090268304E1,-9.505233765E-2,6.358776855E-1,1.028361511E0,1.212807807E0
1.091270204E1,-3.462300110E-1,6.086343384E-1,-1.692979431E-1,7.203976485E-1
1.092272204E1,-3.908372498E-1,8.646020508E-1,-7.533833313E-1,1.211559700E0
1.093274104E1,-4.311035156E-1,1.152303772E0,-9.521699524E-1,1.555725504E0
1.094276004E1,-1.435963898E0,7.668553162E-1,-5.572761383E0,5.805663513E0
1.095277904E1,-5.264402618E0,-5.580395508E0,-3.236120453E1,3.325811642E1
1.096279804E1,-1.881138153E0,-7.728578339E0,-1.250858826E1,1.482344036E1
1.097281704E1,-2.696193237E0,-1.248748215E1,-1.568737793E1,2.023117630E1
1.098283604E1,-3.457959137E0,-2.159140045E1,-6.462211761E0,2.280145249E1
1.099285504E1,-3.643423462E-1,-1.812760345E1,7.032226410E0,1.944723530E1
1.100287404E1,2.091600494E0,-2.102093674E1,-8.465944977E0,2.275800515E1
1.101289304E1,1.978136444E0,-2.041619431E1,-1.331690735E1,2.445555223E1
1.102291204E1,4.635709991E0,-1.901735321E1,-1.783376450E1,2.648004317E1
1.103293204E1,5.909710693E0,-1.266456390E1,4.114793243E0,1.456871246E1
1.104295104E1,5.271737366E0,-1.658176804E1,1.306662781E1,2.175966471E1
1.105297004E1,-1.862726440E0,-4.347903488E1,1.221879089E1,4.520171540E1
1.106298904E1,-9.033564606E0,-7.275949585E1,6.906637573E0,7.364272651E1
1.107300804E1,-1.208032883E1,-7.890930725E1,1.042372375E1,8.050631734E1
1.108302704E1,-1.430245789E1,-7.808826462E1,1.115630035E1,8.016732757E1
1.109304604E1,-9.990225220E0,-6.324572983E1,4.842280426E0,6.421272943E1
1.110306504E1,-3.167113953E0,-3.086401794E1,-5.825435944E0,3.156824224E1
1.111308404E1,-4.166435852E0,-1.687470886E1,-1.444466217E1,2.260007195E1
1.112310304E1,-7.019353180E0,-5.699398041E0,-2.626558044E1,2.777832200E1
1.113312204E1,-6.989265747E0,3.957769775E-1,-1.444017151E1,1.604758637E1
1.114314204E1,-2.746638336E0,1.040037231E0,-1.859582977E0,3.476168644E0
1.115316104E1,-1.675016785E-1,1.467398529E0,-4.445755005E-2,1.477596606E0
1.116318004E1,1.085841980E0,1.736538849E0,-1.248403931E0,2.398568814E0
1.117319904E1,1.619033203E0,1.965562592E0,-2.734064484E0,3.736283369E0
1.118321804E1,1.901795197E0,2.317780151E0,-4.897665253E0,5.742478100E0
1.119323704E1,2.484084320E0,2.271825714E0,-6.782845001E0,7.572242290E0
1.120325604E1,3.179089050E0,2.047891388E0,-6.722221069E0,7.712893259E0
1.121327504E1,4.473447418E0,1.796114960E0,-6.238576813E0,7.884009221E0
1.122329404E1,5.623805237E0,1.769620056E0,-5.610782318E0,8.138772555E0
1.123331304E1,4.845423889E0,1.409019928E0,-3.619622955E0,6.210083748E0
1.124333204E1,3.782484283E0,1.113833771E0,-2.265389099E0,4.547504898E0
1.125335204E1,3.004851379E0,8.611592102E-1,-1.680854645E0,3.549084295E0
1.126337104E1,2.165247345E0,5.807922363E-1,-1.351240082E0,2.617530410E0
1.127339004E1,1.557062073E0,5.733078003E-1,-1.263971558E0,2.085844728E0
1.128340904E1,1.553768921E0,7.917036438E-1,-1.885479126E0,2.568272582E0
1.129342804E1,1.941163330E0,1.103804626E0,-2.862946472E0,3.630834922E0
1.130344704E1,2.085912323E0,1.197958832E0,-2.253114624E0,3.295855138E0
1.131346604E1,1.880389709E0,1.090033264E0,-6.152206421E-1,2.258879017E0
1.132348504E1,1.412911835E0,9.535171509E-1,8.232879639E-1,1.892965367E0
1.133350367E1,8.937913513E-1,7.765850830E-1,1.778152313E0,2.136298907E0
1.134352267E1,2.465373230E-1,4.670288086E-1,2.195185089E0,2.257816231E0
1.135354167E1,-4.125421143E-1,2.005828857E-2,2.250719604E0,2.288303317E0
1.136356167E1,-6.979985046E-1,-1.080752563E-1,2.222578125E0,2.332109709E0
1.137358067E1,-8.155041504E-1,-1.483415222E-1,2.184407501E0,2.336383607E0
1.138359967E1,-8.165519714E-1,-1.868115234E-1,2.193837891E0,2.348314365E0
1.139361867E1,-6.128256226E-1,-2.128573608E-1,2.185305634E0,2.279566672E0
1.140363767E1,-2.173480225E-1,-1.919009399E-1,2.072739716E0,2.092920462E0
1.141365667E1,1.683998108E-1,-1.305285645E-1,1.866019592E0,1.878144116E0
1.142367567E1,4.879852295E-1,2.529739380E-2,1.544937286E0,1.620370563E0
1.143369467E1,7.593708801E-1,1.751358032E-1,1.027164001E0,1.289334157E0
1.144371367E1,9.101074219E-1,2.764750671E-1,5.542973328E-1,1.100899412E0
1.145373267E1,1.204395447E0,3.814068604E-1,6.212081909E-2,1.264870974E0
1.146375167E1,2.230511627E0,5.553451538E-1,-3.093317413E0,3.853855599E0
1.147377167E1,4.516557770E0,6.795867920E-1,-1.153636002E1,1.240760794E1
1.148379067E1,1.570534058E0,-4.411326599E-1,-4.497098236E0,4.783834006E0
1.149380967E1,-3.053649902E-1,-8.677455139E-1,4.085005188E-1,1.006530043E0
1.150382867E1,-9.201365662E-1,-3.888314209E0,-1.207164688E1,1.271574996E1
1.151384767E1,-2.109712830E0,-1.322065750E1,-2.468367004E1,2.808060255E1
1.152386667E1,-1.172960815E0,-1.493204865E1,-3.806733856E0,1.545422714E1
1.153388567E1,-8.443940735E-1,-1.207419159E1,6.046376495E0,1.352988443E1
1.154390467E1,-1.669178925E0,-1.920461380E1,1.184995789E1,2.262796613E1
1.155392367E1,-2.288740540E0,-5.425677246E1,5.466183014E0,5.457943613E1
1.156394267E1,-2.308200073E0,-7.836952972E1,4.747078400E0,7.854709244E1
1.157396167E1,-1.452579346E0,-7.858957214E1,9.343120880E0,7.915633104E1
1.158398167E1,-7.206015015E-1,-7.817613190E1,6.014343109E0,7.841045331E1
1.159400067E1,-8.083190918E-2,-6.380436813E1,2.127226410E0,6.383987014E1
1.160401967E1,-9.952803040E-1,-3.440131210E1,-7.196434937E0,3.516005593E1
1.161403867E1,-4.094285889E0,-1.785457123E1,-3.317566086E1,3.789687803E1
1.162405767E1,-6.424340515E0,-8.966504059E0,-2.229149460E1,2.487129023E1
1.163407667E1,-3.797303467E0,-7.816744995E0,9.035211182E-1,8.737125749E0
1.164409567E1,-1.694476318E0,-7.231162720E0,3.945944366E0,8.410198643E0
1.165411467E1,-1.382075958E0,-5.126539307E0,2.294877777E0,5.784289345E0
1.166413367E1,-9.988728333E-1,-2.886896667E0,7.918533325E-2,3.055845157E0
1.167415267E1,-8.891510010E-1,-9.416917419E-1,-1.355431366E0,1.874717853E0
1.168417167E1,-5.763015747E-1,1.089883575E0,-2.384990387E0,2.684799594E0
1.169419167E1,-3.498225403E-1,2.565664673E0,-3.898343353E0,4.679967086E0
1.170421067E1,-1.718426514E-1,2.418820038E0,-6.337071991E0,6.785182510E0
1.171422967E1,3.820056152E-1,2.091750183E0,-1.183918030E1,1.202861327E1
1.172424867E1,4.617897034E-1,2.270478516E0,-1.395368317E1,1.414473741E1
1.173426767E1,-4.218228149E-1,2.104324036E0,-8.297994232E0,8.571045584E0
1.174428667E1,-4.745132446E-1,1.028361511E0,-2.754122772E0,2.977899001E0
1.175430567E1,1.588197327E-1,9.434880066E-1,-4.864883423E-2,9.579979307E-1
1.176432467E1,3.309617615E-1,1.046024780E0,8.041278076E-1,1.360266540E0
1.177434367E1,4.082011414E-1,9.786648560E-1,1.536105652E0,1.866556628E0
1.178436267E1,4.290078735E-1,7.110214233E-1,1.760189667E0,1.946244302E0
1.179438167E1,5.761518860E-1,4.414320374E-1,1.601369934E0,1.758180567E0
1.180440167E1,6.655160522E-1,3.285667419E-1,1.459165649E0,1.637080362E0
1.181442067E1,7.009922791E-1,3.218307495E-1,1.432970123E0,1.627380896E0
1.182443967E1,7.114704895E-1,3.544628906E-1,1.431922302E0,1.637753241E0
1.183445867E1,6.583309937E-1,3.800596619E-1,1.444047089E0,1.631905953E0
1.184447767E1,6.116281128E-1,4.152365112E-1,1.737886047E0,1.888586303E0
1.185449667E1,6.024971008E-1,4.520599365E-1,2.503843231E0,2.614687719E0
1.186451567E1,6.800358582E-1,4.749623108E-1,3.149600372E0,3.256995620E0
1.187453467E1,7.408094788E-1,4.993615723E-1,3.146007843E0,3.270401506E0
1.188455367E1,7.423063660E-1,4.790039062E-1,2.679278412E0,2.821169313E0
1.189457267E1,6.324348450E-1,4.201762390E-1,2.220632172E0,2.346855161E0
1.190459267E1,4.044589233E-1,4.896318054E-1,1.891766052E0,1.995521266E0
1.191461167E1,1.781295776E-1,6.075865173E-1,1.524280243E0,1.650551963E0
1.192463067E1,5.358856201E-2,6.762936401E-1,1.212628326E0,1.389500730E0
1.193464967E1,6.286926270E-2,6.123765564E-1,9.166937256E-1,1.104212379E0
1.194466867E1,7.409591675E-2,4.517605591E-1,5.978567505E-1,7.530009972E-1
1.195468767E1,2.918930054E-2,2.841091919E-1,2.555186462E-1,3.832229465E-1
1.196470667E1,-6.586303711E-3,1.272354126E-1,-1.526824951E-2,1.283173763E-1
1.197472567E1,-7.185058594E-3,1.586700439E-2,-1.574725342E-1,1.584329067E-1
1.198474467E1,3.248245239E-2,-4.700225830E-2,-2.152523804E-1,2.227058806E-1
1.199476367E1,5.358856201E-2,-6.526428223E-2,-2.830613708E-1,2.953894043E-1
1.200478267E1,1.149609375E-1,-9.310638428E-2,-5.072950745E-1,5.284251210E-1
1.201480267E1,2.874322815E0,-1.006357269E0,-1.678803909E1,1.706202635E1
1.202482167E1,6.631060638E0,-5.521118774E0,-4.290887054E1,4.376785223E1
1.203484067E1,4.282594299E-1,-6.053411865E0,-6.708000641E0,9.045688141E0
1.204485967E1,-1.481169891E0,-6.789730682E0,6.733896790E0,9.676759424E0
1.205487867E1,-1.759590912E0,-1.282996994E1,4.538262634E0,1.372224896E1
1.206489767E1,-2.287543030E0,-1.112980545E1,-7.828570404E0,1.379825848E1
1.207491667E1,-9.815089417E-1,-9.387877808E0,-1.867666168E0,9.622046895E0
1.208493567E1,-2.129771118E0,-2.095672028E1,4.383634186E0,2.151595451E1
1.209495467E1,-4.813839569E0,-4.110991150E1,6.018384705E0,4.182605443E1
1.210497367E1,-6.152805176E0,-6.223578003E1,9.330097961E0,6.323132179E1
1.211499267E1,-5.733527069E0,-7.773948990E1,1.323068665E1,7.906549621E1
1.212501267E1,-7.847281494E0,-7.861382172E1,1.501048553E1,8.041783053E1
1.213503167E1,-5.819747772E0,-7.540494461E1,6.892716522E0,7.594264070E1
1.214505067E1,-1.850751343E0,-5.141104019E1,-2.784659271E0,5.151965316E1
1.215506967E1,-6.734495544E-1,-2.842977997E1,-1.708996124E1,3.317789473E1
1.216508867E1,-3.304079132E0,-1.500135452E1,-4.169818817E1,4.443755701E1
1.217510767E1,-5.647605743E0,-1.153142029E1,-1.450109482E1,1.936881141E1
1.218512667E1,-5.279221802E0,-1.220861206E1,3.957021332E0,1.387726231E1
1.219514567E1,-5.439239044E0,-1.151615204E1,6.153852997E0,1.414485722E1
1.220516467E1,-6.014492798E0,-9.825118561E0,4.540807343E0,1.238248802E1
1.221518367E1,-7.090305634E0,-7.414531403E0,7.234455872E-1,1.028450696E1
1.222520367E1,-6.753056946E0,-4.663103027E0,-2.037113800E0,8.455657313E0
1.223522267E1,-4.759203186E0,-2.100731506E0,-2.428250427E0,5.741035444E0
1.224524167E1,-2.443219299E0,-1.164578247E-1,-3.138972473E0,3.979451112E0
1.225526067E1,-3.938310242E-1,1.102607117E0,-4.909490662E0,5.047171870E0
1.226527967E1,1.061742096E0,1.550326080E0,-6.604865112E0,6.866953501E0
1.227529867E1,2.237397308E0,1.697919159E0,-8.172405396E0,8.641590486E0
1.228531767E1,3.376079407E0,1.352736969E0,-9.256002045E0,9.944917462E0
1.229533667E1,3.338657227E0,5.346881104E-1,-7.345075836E0,8.085954643E0
1.230535567E1,2.779120789E0,1.035845947E-1,-4.338577881E0,5.153396953E0
1.231537467E1,2.912493439E0,4.863386536E-1,-3.271297302E0,4.406872968E0
1.232539367E1,3.108435974E0,9.699829102E-1,-3.275338898E0,4.618558860E0
1.233541421E1,3.012934570E0,1.323547668E0,-3.574267273E0,4.858491504E0
1.234543321E1,2.600691833E0,1.582808533E0,-3.348386993E0,4.525547074E0
1.235545221E1,2.344125366E0,1.696422272E0,-2.908751221E0,4.102877761E0
1.236547121E1,2.164648590E0,1.713636475E0,-1.465751953E0,3.125809059E0
1.237549021E1,1.961670685E0,1.495240631E0,-7.349716187E-2,2.467650351E0
1.238550921E1,1.915267181E0,1.182989960E0,9.392967224E-1,2.439260534E0
1.239552821E1,1.996847534E0,1.049018555E0,1.545086975E0,2.734069085E0
1.240554721E1,1.862427063E0,8.849597168E-1,1.660047913E0,2.647177240E0
1.241556621E1,1.710792389E0,7.849676514E-1,1.625619507E0,2.487091392E0
1.242558521E1,1.580563202E0,7.020401001E-1,1.560355225E0,2.329323671E0
1.243560521E1,1.321152649E0,5.740562439E-1,1.572030945E0,2.132197501E0
1.244562421E1,1.033301239E0,3.978726196E-1,1.755100250E0,2.075184561E0
1.245564321E1,7.602690125E-1,3.059637451E-1,1.875449982E0,2.046688891E0
1.246566221E1,4.198768616E-1,2.285746765E-1,1.925895081E0,1.984342416E0
1.247568121E1,1.374142456E-1,2.065704346E-1,1.923500061E0,1.939434584E0
1.248570021E1,-1.212478638E-2,2.653981018E-1,1.885030060E0,1.903660025E0
1.249571921E1,-1.118174744E-1,2.628533936E-1,1.674418030E0,1.698608487E0
1.250573821E1,-2.028282166E-1,1.727407837E-1,1.439556427E0,1.464001834E0
1.251575721E1,-2.333647156E-1,6.780899048E-2,1.144819336E0,1.170328356E0
1.252577621E1,-8.307723999E-2,-9.610015869E-2,7.363188171E-1,7.471964058E-1
1.253579521E1,1.008901978E-1,-2.561174011E-1,4.090992737E-1,4.930894147E-1
1.254581521E1,2.198927307E-1,-3.653901672E-1,1.799258423E-1,4.628564530E-1
1.255583421E1,3.441343689E-1,-4.129911804E-1,-3.697311401E-2,5.388480214E-1
1.256585321E1,6.333329773E-1,-5.043013000E-1,-6.503974915E-1,1.038483201E0
1.257587221E1,9.843530273E-1,-6.376739502E-1,-1.352138214E0,1.789932038E0
1.258589121E1,8.184979248E-1,-7.119195557E-1,-6.966513062E-1,1.289221218E0
1.259591021E1,3.531156921E-1,-7.762857056E-1,-4.519102478E-1,9.651596038E-1
1.260592921E1,-8.369096375E-1,-2.048190765E0,-4.861141205E0,5.340992133E0
1.261594821E1,-1.876946869E0,-4.763693848E0,-1.127230911E1,1.238065674E1
1.262596721E1,-1.147214355E0,-7.836204529E0,-1.164832718E1,1.408565683E1
1.263598621E1,-2.666105804E0,-2.230526596E1,-8.174501038E0,2.390513495E1
1.264600521E1,-6.827452240E0,-3.577590363E1,3.874243469E0,3.662702754E1
1.265602521E1,-1.008168503E1,-5.710205566E1,6.241271210E0,5.832013889E1
1.266604421E1,-1.108235413E1,-7.700107544E1,1.067999084E1,7.852417714E1
1.267606321E1,-1.099463654E1,-7.872384293E1,1.289568329E1,8.052716390E1
1.268608221E1,-5.245392151E0,-7.769278702E1,6.527625732E0,7.814277440E1
1.269610121E1,-7.209008789E-1,-5.898049942E1,-3.161126404E0,5.906954994E1
1.270612021E1,-1.218466187E0,-3.170736420E1,-1.440888657E1,3.484906909E1
1.271613921E1,-1.817520447E0,-1.895642990E1,-2.397998337E1,3.062171154E1
1.272615821E1,-2.694396973E0,-1.547257462E1,-1.216205887E1,1.986393758E1
1.273617721E1,-2.578837280E0,-1.524938873E1,2.496807861E-1,1.546792161E1
1.274619621E1,-2.657274170E0,-1.326900696E1,3.613336029E0,1.400656449E1
1.275621621E1,-2.833008728E0,-1.021745270E1,4.163591766E0,1.139112701E1
1.276623521E1,-3.019969940E0,-7.199728088E0,2.150128784E0,8.098108222E0
1.277625421E1,-3.068768463E0,-4.173321533E0,-1.007554779E0,5.277226462E0
1.278627321E1,-2.710862732E0,-1.215472412E0,-3.204685822E0,4.369915463E0
1.279629221E1,-1.266067200E0,1.193917236E0,-3.982169037E0,4.345806572E0
1.280631121E1,-5.129832458E-1,2.808010712E0,-5.847140808E0,6.506698979E0
1.281633021E1,2.076182556E-1,3.487148438E0,-9.631870422E0,1.024579120E1
1.282634921E1,1.194515991E0,3.298989716E0,-1.162692169E1,1.214477293E1
1.283636821E1,1.575473785E0,2.849324799E0,-1.009845016E1,1.061034708E1
1.284638721E1,1.985471191E0,2.036215668E0,-7.023694153E0,7.577634832E0
1.285640621E1,2.184856567E0,1.382375336E0,-4.984933777E0,5.615525314E0
1.286642621E1,1.987566833E0,1.285077667E0,-3.217559052E0,3.994312554E0
1.287644521E1,1.867067413E0,1.575623474E0,-1.644480286E0,2.944969519E0
1.288646421E1,1.648521881E0,1.800455933E0,-4.849914551E-1,2.488871766E0
1.289648321E1,1.303639069E0,1.691931610E0,6.032455444E-2,2.136760737E0
1.290650221E1,1.052461395E0,1.430724792E0,3.788621521E-1,1.816090568E0
1.291652121E1,1.055604858E0,1.125359802E0,5.613327026E-1,1.641898506E0
1.292654021E1,1.213975525E0,8.708889771E-1,6.192622375E-1,1.617303281E0
1.293655921E1,1.409169617E0,6.571334839E-1,5.769003296E-1,1.658432216E0
1.294657821E1,1.615889740E0,5.132826233E-1,5.423222351E-1,1.780076434E0
1.295659721E1,1.738784180E0,4.282594299E-1,5.508544922E-1,1.873557374E0
1.296661621E1,1.825753326E0,2.399510193E-1,8.571176147E-1,2.031157873E0
1.297663621E1,1.883383484E0,-6.661148071E-2,1.478325806E0,2.395207220E0
1.298665521E1,1.894460449E0,-2.978805542E-1,1.818268890E0,2.642690859E0
1.299667421E1,1.752405853E0,-4.098477173E-1,1.883533173E0,2.605110101E0
1.300669321E1,1.507964172E0,-3.864962769E-1,1.951940918E0,2.496679528E0
1.301671221E1,1.201850739E0,-2.483335876E-1,2.186054077E0,2.506979696E0
1.302673121E1,1.033001862E0,3.053649902E-2,2.419418793E0,2.630895782E0
1.303675021E1,8.961863708E-1,6.691085815E-2,2.196532288E0,2.373263821E0
1.304676921E1,7.289840698E-1,-7.783813477E-2,1.780547333E0,1.925571436E0
1.305678821E1,5.608836365E-1,-2.594105530E-1,1.397344208E0,1.527892380E0
1.306680721E1,4.110452271E-1,-4.049079895E-1,1.084045715E0,1.228032480E0
1.307682721E1,2.941383362E-1,-4.552033997E-1,8.358618164E-1,9.961889740E-1
1.308684621E1,1.763333130E-1,-4.167333984E-1,5.292993164E-1,6.963604878E-1
1.309686521E1,1.140628052E-1,-3.109034729E-1,7.948471069E-2,3.405717431E-1
1.310688421E1,3.487747192E-2,-2.281256104E-1,-2.451901245E-1,3.367134231E-1
1.311690321E1,-8.756790161E-2,-3.013233948E-1,-6.979985046E-1,7.652880752E-1
1.312692221E1,-4.552033997E-1,-1.216520233E0,-3.272943878E0,3.521263018E0
1.313694121E1,-1.305285645E0,-2.079775085E0,-4.782255249E0,5.375797642E0
1.314696021E1,-2.096390533E0,-2.096839600E0,-5.304519196E0,6.076965811E0
1.315697921E1,-2.238295441E0,-2.226619720E0,-5.277126160E0,6.149460331E0
1.316699821E1,-3.404669952E0,-4.104913788E0,-5.097050629E0,7.377128154E0
1.317701821E1,-6.946604462E0,-1.313743057E1,-6.705306244E0,1.630363540E1
1.318703721E1,-8.209977264E0,-1.954216187E1,2.663710785E0,2.136340732E1
1.319705621E1,-1.241772720E1,-3.090847549E1,7.377408600E0,3.411685747E1
1.320707521E1,-1.956027420E1,-5.435556702E1,9.192234650E0,5.849469352E1
1.321709421E1,-2.594629440E1,-7.648839157E1,9.880353699E0,8.137140547E1
1.322711321E1,-2.748569321E1,-7.877398865E1,1.138532410E0,8.343920466E1
1.323713221E1,-2.659384781E1,-7.612000763E1,-3.557981140E1,8.813291827E1
1.324715121E1,-7.513924713E0,-5.180951157E1,-5.683680725E0,5.265917565E1
1.325717021E1,-3.406166840E0,-3.080324432E1,8.580456848E0,3.215689775E1
1.326718921E1,-2.317630463E0,-2.233909561E1,2.885100403E0,2.264355114E1
1.327720921E1,2.320175171E-1,-1.598256409E1,-2.140848083E0,1.612697794E1
1.328722821E1,2.014061737E0,-1.143472137E1,-5.755681000E0,1.295905712E1
1.329724721E1,2.337389374E0,-8.501121826E0,-5.129084015E0,1.019999825E1
1.330726621E1,1.869612122E0,-6.468648376E0,-3.734284515E0,7.699593635E0
1.331728521E1,9.401948547E-1,-4.506828003E0,-3.113675079E0,5.557916652E0
1.332730421E1,4.939727783E-1,-2.666105804E0,-3.461551666E0,4.397097816E0
1.333732329E1,3.384461975E-1,-9.560618591E-1,-3.943848724E0,4.072166852E0
1.334734229E1,3.469784546E-1,9.991722107E-1,-4.535268860E0,4.656973565E0
1.335736129E1,2.597099304E-1,2.149979095E0,-7.168892212E0,7.488850039E0
1.336738029E1,1.540296936E-1,3.307821350E0,-1.383033966E1,1.422124124E1
1.337739929E1,-1.146615601E-1,3.901636505E0,-1.551748123E1,1.600087930E1
1.338741929E1,-1.023122406E0,2.460732880E0,-8.900341644E0,9.290751700E0
1.339743829E1,-2.236648865E0,1.125060425E0,-4.457879791E0,5.112832027E0
1.340745729E1,-2.325713654E0,2.706372070E-1,-2.092947693E0,3.140480623E0
1.341747629E1,-1.836231537E0,-4.911286926E-1,-1.956431580E-1,1.910819169E0
1.342749529E1,-1.436113586E0,-6.942562866E-1,1.433868256E0,2.144852489E0
1.343751429E1,-9.859996033E-1,-4.546046448E-1,2.027234344E0,2.299682519E0
1.344753329E1,-5.599855042E-1,1.833686829E-1,1.794169006E0,1.888451816E0
1.345755229E1,-3.270698547E-1,5.122348022E-1,1.432970123E0,1.556522585E0
1.346757129E1,-2.731819153E-1,3.490740967E-1,1.453178101E0,1.519278670E0
1.347759029E1,-7.080276489E-2,3.159928894E-1,1.519340515E0,1.553467135E0
1.348761029E1,2.297721863E-1,3.275189209E-1,1.397643585E0,1.453778351E0
1.349762929E1,5.424719238E-1,3.671864319E-1,1.186133423E0,1.354996000E0
1.350764829E1,6.885681152E-1,4.197271729E-1,9.915380859E-1,1.278062880E0
1.351766729E1,6.715036011E-1,5.101391602E-1,1.001567230E0,1.309311256E0
1.352768629E1,5.785469055E-1,6.411167908E-1,1.223854980E0,1.497854557E0
1.353770529E1,4.822970581E-1,7.523355103E-1,1.327439575E0,1.600223421E0
1.354772429E1,3.616479492E-1,8.440946960E-1,1.271605682E0,1.568523543E0
1.355774329E1,2.549198914E-1,9.349557495E-1,1.238823853E0,1.572835319E0
1.356776229E1,2.068698120E-1,1.013392639E0,1.242865448E0,1.616933605E0
1.357778129E1,1.347198486E-1,1.047821045E0,1.291364594E0,1.668442655E0
1.358780129E1,1.901046753E-2,1.069525909E0,1.312620392E0,1.693286556E0
1.359782029E1,-1.874102783E-1,1.026565247E0,1.223405914E0,1.608005239E0
1.360783929E1,-3.597019958E-1,8.910969543E-1,1.062939606E0,1.432927044E0
1.361785829E1,-5.701643372E-1,7.247927856E-1,8.854087830E-1,1.278421162E0
1.362787729E1,-7.656578064E-1,4.894821167E-1,6.051914978E-1,1.091824788E0
1.363789629E1,-8.565188599E-1,2.556683350E-1,3.586541748E-1,9.631322193E-1
1.364791529E1,-9.114546204E-1,7.903564453E-2,2.076182556E-1,9.381372491E-1
1.365793429E1,-9.400451660E-1,1.197509766E-3,9.295669556E-2,9.446307720E-1
1.366795329E1,-9.731263733E-1,-2.065704346E-2,-2.140548706E-2,9.735809400E-1
1.367797229E1,-1.554217987E0,-2.014810181E-1,-2.466271362E0,2.922102425E0
1.368799129E1,-3.307072906E0,-2.027234344E0,-1.473924957E1,1.524112490E1
1.369801129E1,-3.861968994E0,-3.904330902E0,-1.318667816E1,1.428450508E1
1.370803029E1,-1.470242615E0,-4.214036865E0,-2.235002289E0,4.991488283E0
1.371804929E1,3.900888062E-1,-6.414760437E0,3.888164520E0,7.511267808E0
1.372806829E1,-2.049687653E0,-1.789543625E1,1.022448807E1,2.071202584E1
1.373808729E1,-1.141107056E1,-4.590174683E1,1.410367126E1,4.935682765E1
1.374810629E1,-1.537931854E1,-7.568411407E1,1.169967041E1,7.811204036E1
1.375812529E1,-1.016895355E1,-7.894418472E1,-1.678983536E1,8.134795934E1
1.376814429E1,-1.370280487E1,-7.819813614E1,-7.103029175E0,7.970676496E1
1.377816329E1,-1.062475571E1,-6.798861694E1,-1.087249054E1,6.966741360E1
1.378818229E1,-4.725972290E0,-3.398577621E1,-2.822081451E1,4.442726833E1
1.379820229E1,-4.393064575E0,-1.891466675E1,-1.262295044E1,2.316036512E1
1.380822129E1,-4.995411987E0,-1.506317596E1,2.308649139E0,1.603693462E1
1.381824029E1,-7.581134949E0,-1.255888367E1,5.169350281E0,1.555382102E1
1.382825929E1,-9.491612091E0,-1.120090759E1,4.038302307E0,1.522691422E1
1.383827829E1,-9.941875763E0,-9.432035980E0,2.640509033E0,1.395623461E1
1.384829729E1,-9.415420532E0,-6.692732391E0,1.492097168E0,1.164771070E1
1.385831629E1,-8.136779480E0,-3.719165955E0,1.763333130E-1,8.948210388E0
1.386833529E1,-6.264622650E0,-1.043929138E0,-1.119671631E0,6.448949492E0
1.387835429E1,-4.740342407E0,1.469344482E0,-4.033661957E0,6.395330181E0
1.388837329E1,-3.240012360E0,3.407813416E0,-6.098767548E0,7.701028371E0
1.389839329E1,-1.826202393E0,3.902983704E0,-4.224066010E0,6.034155336E0
1.390841229E1,-1.515747986E0,3.575464783E0,-1.343905334E0,4.109443018E0
1.391843129E1,-1.365909576E0,2.985541534E0,1.259331207E0,3.516401899E0
1.392845029E1,-9.163943481E-1,3.215613098E0,1.575623474E0,3.696286722E0
1.393846929E1,-6.231541443E-1,3.452720032E0,1.484313354E0,3.809564652E0
1.394848829E1,-3.975732422E-1,3.373834076E0,1.469344482E0,3.701323285E0
1.395850729E1,-3.118016052E-1,3.199895782E0,1.415905609E0,3.513024616E0
1.396852629E1,-2.558180237E-1,3.180735626E0,1.387764130E0,3.479714250E0
1.397854529E1,-1.722917175E-1,3.060086517E0,1.287921753E0,3.324538520E0
1.398856429E1,-1.052311707E-1,2.844385071E0,1.203048248E0,3.090133511E0
1.399858429E1,-1.523831177E-1,2.765948181E0,1.143621826E0,2.996925230E0
1.400860329E1,-1.799258423E-1,2.680625610E0,9.931846619E-1,2.864357300E0
1.401862229E1,-1.031355286E-1,2.401456146E0,7.649093628E-1,2.522442248E0
1.402864129E1,-3.577560425E-2,2.185006256E0,6.057902527E-1,2.267711195E0
1.403866029E1,4.041595459E-2,1.975591736E0,4.840933228E-1,2.034439112E0
1.404867929E1,6.361770630E-2,1.904190216E0,3.600013733E-1,1.938965853E0
1.405869829E1,6.391708374E-2,1.819915466E0,1.538800049E-1,1.827527497E0
1.406871729E1,-8.637039185E-2,1.702858887E0,-2.664459229E-2,1.705256041E0
1.407873629E1,-4.047583008E-1,1.572180634E0,-1.800755310E-1,1.633403938E0
1.408875529E1,-5.893244934E-1,1.448687439E0,-2.764750671E-1,1.588218221E0
1.409877429E1,-6.509962463E-1,1.325194244E0,-3.769161987E-1,1.523811576E0
1.410879429E1,-6.662644958E-1,1.168769531E0,-4.890330505E-1,1.431462162E0
1.411881329E1,-6.117778015E-1,9.627978516E-1,-5.243595886E-1,1.255469936E0
1.412883229E1,-4.972659302E-1,7.095245361E-1,-5.129832458E-1,1.006901327E0
1.413885129E1,-3.582051086E-1,4.788542175E-1,-5.469625854E-1,8.104198488E-1
1.414887029E1,-2.255809021E-1,2.450404358E-1,-6.195616150E-1,7.034117950E-1
1.415888929E1,-9.654922485E-2,2.888992310E-2,-8.786727905E-1,8.844332950E-1
1.416890829E1,1.329984283E0,-3.370989990E-1,-3.361260223E0,3.630504678E0
1.417892729E1,6.280190277E0,-1.182690582E0,-1.002764740E1,1.189088976E1
1.418894629E1,5.251080322E0,-1.901046753E0,-8.561895447E0,1.022222466E1
1.419896529E1,8.177494812E-1,-1.372645569E0,-2.826123047E-1,1.622571966E0
1.420898529E1,-1.106199646E-1,-9.431886292E-1,1.947450256E0,2.166657349E0
1.421900429E1,-4.790039063E-2,-9.050180054E-1,2.102527771E0,2.289535993E0
1.422902329E1,-1.893562317E-1,-1.070124664E0,2.517913971E0,2.742428366E0
1.423904229E1,-1.528321838E-1,-1.719324646E0,2.481689301E0,3.022948345E0
1.424906129E1,-1.305435333E0,-4.293521576E0,2.632874908E0,5.202933712E0
1.425908029E1,-1.018212616E1,-2.166414917E1,-1.202898560E0,2.396785383E1
1.426909929E1,-2.291375061E1,-5.078309601E1,3.512445831E0,5.582383078E1
1.427911829E1,-2.399031189E1,-7.316170944E1,6.685397644E0,7.728431493E1
1.428913729E1,-1.821636887E1,-7.897906219E1,-5.216651917E-1,8.105430584E1
1.429915629E1,-1.270483017E1,-7.825950851E1,-2.507286072E-1,7.928446410E1
1.430917629E1,-1.403780823E0,-7.575282120E1,-6.021677856E0,7.600474409E1
1.431919529E1,-5.140310669E-1,-5.060317017E1,-4.889881439E0,5.084147912E1
1.432921429E1,-2.272574158E0,-2.896850967E1,-6.645131378E0,2.980766541E1
1.433923333E1,-2.001038818E0,-1.930939590E1,-7.147337036E0,2.068674342E1
1.434925233E1,-2.191442871E0,-1.291125092E1,-5.140759735E0,1.406876799E1
1.435927133E1,-2.860850830E0,-9.611812134E0,-2.250569916E0,1.027796015E1
1.436929033E1,-2.657723236E0,-7.211703186E0,-1.125808868E0,7.767856928E0
1.437930933E1,-2.229763184E0,-4.878205719E0,-2.235002289E0,5.810677252E0
1.438932833E1,-1.929188232E0,-2.588716736E0,-2.518063660E0,4.094370058E0
1.439934733E1,-1.503473511E0,-4.617897034E-1,-1.831740875E0,2.414323293E0
1.440936733E1,-8.666976929E-1,1.213975525E0,-2.175276489E0,2.637561235E0
1.441938633E1,-3.900888062E-1,2.418969727E0,-4.194427643E0,4.857654482E0
1.442940533E1,-3.845503235E-1,3.027454376E0,-6.987619171E0,7.624970861E0
1.443942433E1,-4.806504822E-1,3.016527100E0,-1.034319122E1,1.078480715E1
1.444944333E1,-6.450086975E-1,3.209625549E0,-1.216744766E1,1.260017917E1
1.445946233E1,-9.373507690E-1,3.059787140E0,-1.167347488E1,1.210417034E1
1.446948133E1,-1.065933380E0,2.364483032E0,-7.732919312E0,8.156288069E0
1.447950033E1,-9.731263733E-1,1.603166199E0,-4.359983368E0,4.746216574E0
1.448951933E1,-8.416996765E-1,1.029109955E0,-1.672322388E0,2.136395987E0
1.449953833E1,-5.201683044E-1,9.602531433E-1,1.136137390E-1,1.097984174E0
1.450955833E1,-1.408570862E-1,1.139131165E0,1.266516266E0,1.709246612E0
1.451957733E1,1.872605896E-1,1.120719452E0,2.801125031E0,3.022809960E0
1.452959633E1,2.457888794E-1,9.101074219E-1,4.118086395E0,4.224611610E0
1.453961533E1,3.118016052E-1,8.018824768E-1,4.743186493E0,4.820586464E0
1.454963433E1,6.617738342E-1,7.220983887E-1,4.431684265E0,4.538633728E0
1.455965333E1,1.012195129E0,6.393205261E-1,3.621269531E0,3.814034967E0
1.456967233E1,1.160536652E0,5.665718079E-1,2.911445618E0,3.185021902E0
1.457969133E1,1.171164551E0,5.330415344E-1,2.463876343E0,2.779648596E0
1.458971033E1,1.180894318E0,5.852828979E-1,2.411634979E0,2.748281414E0
1.459972933E1,1.146166534E0,7.194039917E-1,2.516716461E0,2.857464186E0
1.460974933E1,1.085841980E0,8.244854736E-1,2.399210815E0,2.759536490E0
1.461976833E1,9.177415466E-1,8.854087830E-1,2.165995789E0,2.513510695E0
1.462978733E1,6.716532898E-1,9.518705750E-1,1.910028076E0,2.237271326E0
1.463980633E1,4.561015320E-1,9.789642334E-1,1.564845886E0,1.901352736E0
1.464982533E1,3.435356140E-1,9.086105347E-1,1.169068909E0,1.519971031E0
1.465984433E1,2.287243652E-1,7.119195557E-1,7.283853149E-1,1.043881917E0
1.466986333E1,6.331832886E-2,4.899311829E-1,3.058140564E-1,5.810025919E-1
1.467988233E1,-4.700225830E-2,2.133064270E-1,-6.286926270E-3,2.185140030E-1
1.468990133E1,-9.909393311E-2,-2.305206299E-2,-1.908531189E-1,2.162774102E-1
1.469992033E1,-8.966354370E-2,-9.595046997E-2,-2.511776733E-1,2.834365314E-1
1.470994033E1,-8.891510010E-2,-1.008901978E-1,-2.483335876E-1,2.824080342E-1
1.471995933E1,-7.828720093E-2,-1.184037781E-1,-2.365081787E-1,2.758341152E-1
1.472997833E1,2.942880249E-1,-2.435435486E-1,-1.697021027E0,1.739482471E0
1.473999733E1,3.816613312E0,-1.926344147E0,-1.890837982E1,1.938566910E1
1.475001633E1,2.082619171E0,-2.741548920E0,-1.310764252E1,1.355225758E1
1.476003533E1,-8.903485107E-1,-1.515298920E0,1.445993042E-1,1.763451231E0
1.477005433E1,-1.033001862E0,-1.453028412E0,1.132395172E0,2.112037698E0
1.478007333E1,-2.110161896E0,-2.718047791E0,-2.628234558E0,4.329917310E0
1.479009233E1,-4.521796875E0,-8.644673309E0,-1.323532700E1,1.644235094E1
1.480011133E1,-8.196056213E0,-1.694521225E1,-5.792504425E0,1.969438151E1
1.481013133E1,-1.223450821E1,-2.722448639E1,1.694311661E1,3.432091273E1
1.482015033E1,-1.974259506E1,-5.735847244E1,1.865884872E1,6.346587316E1
1.483016933E1,-1.762809219E1,-7.780265854E1,1.294358368E1,8.081794150E1
1.484018833E1,-1.316691925E1,-7.862834152E1,7.026687927E0,8.003223223E1
1.485020733E1,-2.906655579E0,-7.830112198E1,-1.393302612E0,7.836743993E1
1.486022633E1,5.147645416E0,-6.901503250E1,-1.019604721E1,6.995378720E1
1.487024533E1,5.276826782E0,-3.863480850E1,-1.931897598E1,4.351684917E1
1.488026433E1,1.587748260E0,-1.994766861E1,-2.129366959E1,2.922072538E1
1.489028333E1,-5.010081482E-1,-1.306797501E1,-1.082204544E1,1.697467665E1
1.490030233E1,-1.028810577E0,-9.804311829E0,-1.330283661E0,9.947493969E0
1.491032233E1,-1.829645233E0,-7.066505127E0,3.213667145E0,7.975634953E0
1.492034133E1,-3.491339722E0,-4.877307587E0,3.194207611E0,6.795626874E0
1.493036033E1,-3.954925690E0,-3.406466217E0,1.443897400E0,5.415744547E0
1.494037933E1,-2.960693207E0,-2.325114899E0,-6.146218872E-1,3.814396888E0
1.495039833E1,-1.829645233E0,-1.270857239E0,-1.790426788E0,2.858025172E0
1.496041733E1,-1.114133148E0,-9.684860229E-2,-2.391726379E0,2.640270327E0
1.497043633E1,-4.893324280E-1,8.791218567E-1,-2.744243317E0,2.922870651E0
1.498045533E1,1.038839722E-1,1.629361725E0,-4.463867340E0,4.753075125E0
1.499047433E1,8.672964478E-1,1.858684845E0,-6.125561829E0,6.459831282E0
1.500049333E1,1.669777679E0,1.647623749E0,-5.432203674E0,5.917065005E0
1.501051333E1,1.545386353E0,1.335073700E0,-2.305954742E0,3.080270773E0
1.502053233E1,1.194066925E0,1.222058716E0,-1.697619781E0,2.408554805E0
1.503055133E1,7.414082336E-1,9.707313538E-1,-1.157542877E0,1.682828287E0
1.504057033E1,4.834945679E-1,8.140072632E-1,-3.668870544E-1,1.015372312E0
1.505058933E1,3.803590393E-1,7.396119690E-1,-3.891906738E-2,8.325944735E-1
1.506060833E1,1.851649475E-1,6.948550415E-1,2.844085693E-2,7.196655257E-1
1.507062733E1,1.411564636E-1,7.417076111E-1,-4.685256958E-2,7.564723993E-1
1.508064633E1,2.046244812E-1,9.654922485E-1,-1.221459961E-1,9.944677494E-1
1.509066533E1,2.859054565E-1,1.117276611E0,-1.842668152E-1,1.167905482E0
1.510068433E1,2.989283752E-1,1.128802643E0,-1.510359192E-1,1.177440202E0
1.511070433E1,3.204835510E-1,1.028062134E0,-1.287322998E-2,1.076934157E0
1.512072333E1,3.622467041E-1,8.831634521E-1,1.829196167E-1,9.719361831E-1
1.513074233E1,3.803590393E-1,7.473957825E-1,2.694396973E-1,8.808355152E-1
1.514076133E1,4.784051514E-1,7.164102173E-1,3.080593872E-1,9.148856072E-1
1.515078033E1,5.920188904E-1,8.611592102E-1,3.447331238E-1,1.100419229E0
1.516079933E1,6.867718506E-1,9.662406921E-1,3.948788452E-1,1.249482274E0
1.517081833E1,7.879614258E-1,9.801617432E-1,5.387297058E-1,1.368148364E0
1.518083733E1,9.228309631E-1,1.017434235E0,7.764353943E-1,1.577859731E0
1.519085633E1,9.859996033E-1,1.073268127E0,9.547146606E-1,1.742291530E0
1.520087533E1,1.015787659E0,1.175355835E0,1.027313690E0,1.862433710E0
1.521089533E1,9.433383179E-1,1.228645020E0,1.143771515E0,1.925530847E0
1.522091433E1,7.491920471E-1,1.251248016E0,1.204694824E0,1.891613053E0
1.523093333E1,5.569917297E-1,1.281934204E0,1.211879883E0,1.849931875E0
1.524095233E1,5.164260864E-1,1.300495605E0,1.214574280E0,1.852882998E0
1.525097133E1,7.277865601E-1,1.325343933E0,1.111738129E0,1.876744917E0
1.526099033E1,1.081800385E0,1.309177551E0,8.285270691E-1,1.889628280E0
1.527100933E1,1.394649811E0,1.234782257E0,4.343966675E-1,1.912703788E0
1.528102833E1,1.718725891E0,9.949809265E-1,9.879455566E-3,1.985976671E0
1.529104733E1,1.829345856E0,3.709286499E-1,-3.035687256E-1,1.891097114E0
1.530106633E1,8.421487427E-1,-5.246589661E-1,-3.501219177E-1,1.052172463E0
1.531108633E1,3.742218018E-1,-6.996450806E-1,-5.026547241E-1,9.392587329E-1
1.532110533E1,1.200503540E-1,-9.830058289E-1,-2.140249329E0,2.358257775E0
1.533112433E1,-1.288071442E0,-3.933969269E0,-1.520523056E1,1.575862553E1
1.534114246E1,-1.628313904E0,-7.692054291E0,-2.268667282E1,2.401050247E1
1.535116146E1,-2.499053192E0,-1.612776215E1,-1.641606262E1,2.314815523E1
1.536118046E1,-1.672023010E0,-1.778302002E1,9.631121979E0,2.029260882E1
1.537119946E1,-4.966671753E-1,-1.267354523E1,1.418106033E1,1.902545398E1
1.538121846E1,-1.025816803E1,-4.642969894E1,1.187211182E1,4.900912154E1
1.539123746E1,-1.536434967E1,-7.760177628E1,8.658893738E0,7.958062178E1
1.540125646E1,-1.329475342E1,-7.872489075E1,9.531878357E0,8.040656439E1
1.541127646E1,-1.321017929E1,-7.825337128E1,1.108280319E1,8.013069000E1
1.542129546E1,-4.458179169E0,-7.411268188E1,1.165251846E1,7.515547993E1
1.543131446E1,-3.450325012E-1,-4.660438568E1,9.979747009E-1,4.661634655E1
1.544133346E1,-2.440674591E0,-2.400079010E1,-2.539499084E1,3.502713773E1
1.545135246E1,-7.177723846E0,-6.739734650E0,-4.660648132E1,4.763515345E1
1.546137146E1,-3.273842010E0,-4.020639038E0,-1.006806335E1,1.132472867E1
1.547139046E1,-2.325264587E0,-5.433251495E0,1.499282227E0,6.097124274E0
1.548140946E1,-1.988165588E0,-3.681294708E0,3.029849396E0,5.165725554E0
1.549142846E1,-1.735191650E0,-1.262175293E0,3.803590393E0,4.367067255E0
1.550144746E1,-1.317260742E0,1.586700439E-1,2.361788635E0,2.708947693E0
1.551146746E1,-8.762777710E-1,1.261277161E0,5.384303284E-1,1.627448932E0
1.552148646E1,-4.260140991E-1,1.934427338E0,-1.062340851E0,2.247679964E0
1.553150546E1,3.727249146E-2,1.916015625E0,-2.914289703E0,3.487920525E0
1.554152446E1,3.197351074E-1,2.339934082E0,-7.863447876E0,8.210440582E0
1.555154346E1,1.235231323E0,2.684816895E0,-1.094059891E1,1.133272883E1
1.556156246E1,1.713337097E0,1.873653717E0,-8.595276031E0,8.962414425E0
1.557158146E1,1.912872162E0,1.441801758E0,-6.765481110E0,7.177019358E0
1.558160046E1,1.594633942E0,1.056053925E0,-4.915927277E0,5.274888462E0
1.559161946E1,1.279838562E0,9.077124023E-1,-2.821782074E0,3.228681251E0
1.560163946E1,1.030008087E0,8.864566040E-1,-1.484313354E0,2.012438348E0
1.561165846E1,1.217867432E0,1.395697632E0,-9.279203796E-1,2.071764753E0
1.562167746E1,1.682650909E0,2.114353180E0,-8.023315430E-1,2.818783312E0
1.563169646E1,1.953138428E0,2.534080353E0,3.448828125E-1,3.217958531E0
1.564171546E1,1.982028351E0,2.196831665E0,1.706152039E0,3.415473690E0
1.565173446E1,2.114353180E0,1.660047913E0,2.563119965E0,3.714274141E0
1.566175346E1,2.424208832E0,1.488504639E0,2.808310089E0,3.997379151E0
1.567177246E1,2.659519501E0,1.466949463E0,2.585273895E0,3.988561873E0
1.568179146E1,2.612816620E0,1.421593781E0,2.246528320E0,3.727550008E0
1.569181046E1,2.252066803E0,1.323248291E0,2.126328278E0,3.368094843E0
1.570183046E1,1.833986206E0,1.247805176E0,2.279609528E0,3.180745629E0
1.571184946E1,1.481020203E0,1.200054474E0,2.272723846E0,2.966281386E0
1.572186846E1,1.096020813E0,1.137933655E0,2.073937225E0,2.607176680E0
1.573188746E1,7.634124756E-1,1.058598633E0,1.826202393E0,2.244648046E0
1.574190646E1,5.263055420E-1,9.376501465E-1,1.572629700E0,1.905085167E0
1.575192546E1,3.068618774E-1,7.728428650E-1,1.301693115E0,1.544621401E0
1.576194446E1,6.301895142E-2,3.676354980E-1,8.934919739E-1,9.682226784E-1
1.577196346E1,5.373825073E-2,-1.984872437E-1,4.004173279E-1,4.501322272E-1
1.578198246E1,1.323248291E-1,-5.319937134E-1,3.412902832E-2,5.492649288E-1
1.579200146E1,1.395098877E-1,-5.565426636E-1,-2.941383362E-1,6.447636047E-1
1.580202146E1,2.630030823E-1,-6.423143005E-1,-1.272054749E0,1.449089909E0
1.581204046E1,1.853595428E0,-2.126477966E0,-1.150447632E1,1.184528176E1
1.582205946E1,1.714983673E0,-2.587818604E0,-9.761800232E0,1.024356959E1
1.583207846E1,8.173004150E-2,-1.693278809E0,-5.150788879E-1,1.771772893E0
1.584209746E1,-5.929170227E-1,-1.313069458E0,2.785258026E0,3.135819553E0
1.585211646E1,-1.370998993E0,-1.456920319E0,3.254532166E0,3.820240132E0
1.586213546E1,-1.716330872E0,-1.451531525E0,2.766846313E0,3.564852585E0
1.587215446E1,-1.571282501E0,-1.585802307E0,1.249751129E0,2.558432243E0
1.588217346E1,-2.288441162E0,-4.321962433E0,-3.535348206E0,6.034484995E0
1.589219346E1,-4.180805969E0,-1.010608429E1,-1.458237579E1,1.822793905E1
1.590221246E1,-5.559888153E0,-1.074241104E1,-1.592089233E1,1.999466339E1
1.591223146E1,-1.054407349E1,-2.109697861E1,2.814147949E-1,2.358684350E1
1.592225046E1,-1.285526733E1,-3.845622986E1,6.692732391E0,4.109662006E1
1.593226946E1,-1.280497192E1,-5.751669342E1,6.292015686E0,5.925982441E1
1.594228846E1,-1.206251587E1,-7.621131775E1,4.763095093E0,7.730689696E1
1.595230746E1,-6.192322998E0,-7.880392639E1,-1.036624329E1,7.972366448E1
1.596232646E1,4.245770874E0,-7.464482529E1,-2.296718948E1,7.821360691E1
1.597234546E1,3.413052521E0,-4.767016937E1,-4.840633850E0,4.803671212E1
1.598236446E1,-9.446855164E-1,-2.893018936E1,3.268902283E0,2.912960709E1
1.599238446E1,-1.201102295E0,-2.132300858E1,1.381926270E0,2.140147335E1
1.600240346E1,-9.922865295E-1,-1.540551407E1,-7.903564453E-1,1.545765699E1
1.601242246E1,-1.350641327E0,-1.177676010E1,-1.625619507E0,1.196490490E1
1.602244146E1,-1.805844727E0,-9.509874115E0,-1.562151489E0,9.805054724E0
1.603246046E1,-2.037862244E0,-7.900570679E0,-9.970765686E-1,8.219857739E0
1.604247946E1,-1.870659943E0,-6.155499573E0,-7.699987793E-1,6.479385907E0
1.605249846E1,-1.972148895E0,-4.185146942E0,-6.484515381E-1,4.671757227E0
1.606251746E1,-1.989662476E0,-2.185754700E0,-6.550378418E-1,3.027433723E0
1.607253646E1,-1.674717407E0,-4.516108704E-1,-9.035211182E-1,1.955755911E0
1.608255646E1,-1.364562378E0,9.427395630E-1,-1.487157440E0,2.227650246E0
1.609257546E1,-7.418572998E-1,2.149979095E0,-5.429808655E0,5.886899387E0
1.610259446E1,-5.999523926E-1,3.281326447E0,-1.173424850E1,1.219916530E1
1.611261346E1,-8.635542297E-1,3.261567535E0,-1.131377289E1,1.180614271E1
1.612263246E1,-9.684860229E-1,1.974543915E0,-6.726412354E0,7.076822168E0
1.613265146E1,-6.426136780E-1,1.352138214E0,-3.507506104E0,3.813637261E0
1.614267046E1,-4.870870972E-1,1.262774048E0,-1.748663635E0,2.211261325E0
1.615268946E1,-4.089495850E-1,1.211281128E0,-1.078507233E0,1.672608617E0
1.616270846E1,-1.013392639E-1,1.356179810E0,-1.117875366E0,1.760437064E0
1.617272846E1,2.779719543E-1,1.584455109E0,-9.129515076E-1,1.849661281E0
1.618274746E1,6.279441833E-1,1.435814209E0,-3.800596619E-1,1.612551297E0
1.619276646E1,9.144483948E-1,1.022673340E0,1.582209778E-1,1.380981718E0
1.620278546E1,1.120719452E0,6.718029785E-1,5.971083069E-1,1.436617438E0
1.621280446E1,1.258133698E0,4.878355408E-1,8.370593262E-1,1.587939618E0
1.622282346E1,1.480271759E0,3.885919189E-1,9.282197571E-1,1.789916221E0
1.623284246E1,1.789229279E0,3.475772095E-1,8.979826355E-1,2.031877000E0
1.624286146E1,1.916165314E0,3.002755737E-1,8.321195984E-1,2.110516040E0
1.625288046E1,1.918859711E0,2.285746765E-1,7.686515808E-1,2.079686088E0
1.626289946E1,1.765578461E0,1.383123779E-1,7.725434875E-1,1.932154511E0
1.627291946E1,1.617686005E0,8.831634521E-2,8.125103760E-1,1.812424039E0
1.628293846E1,1.521885223E0,9.565109253E-2,8.041278076E-1,1.723921488E0
1.629295746E1,1.434766388E0,1.550775146E-1,6.735992432E-1,1.592588950E0
1.630297646E1,1.298849030E0,2.157014465E-1,5.650749207E-1,1.432775482E0
1.631299546E1,1.179696808E0,2.519261169E-1,4.915777588E-1,1.302612767E0
1.632301446E1,1.119821320E0,2.414479065E-1,3.845503235E-1,1.208377354E0
1.633303346E1,1.082099762E0,1.454974365E-1,2.092648315E-1,1.111710920E0
1.634305304E1,1.043929138E0,9.430389404E-3,2.948867798E-2,1.044388127E0
1.635307204E1,1.102607117E0,-7.214996338E-2,-1.389111328E-1,1.113662594E0
1.636309104E1,1.287173309E0,5.538482666E-3,-3.785627747E-1,1.341698766E0
1.637311104E1,2.439327393E0,9.909393311E-2,-4.443509674E0,5.070001574E0
1.638313004E1,5.843997345E0,2.133064270E-1,-1.588152420E1,1.692396572E1
1.639314904E1,4.622836761E0,-2.862048340E-1,-9.824519806E0,1.086157090E1
1.640316804E1,1.622625732E0,-1.163231049E0,-1.502126312E0,2.498480378E0
1.641318704E1,-6.578819275E-1,-1.657802582E0,8.943901062E-1,1.995257300E0
1.642320604E1,-2.348616028E0,-7.423662415E0,-1.779394730E1,1.942295861E1
1.643322504E1,-3.600462799E0,-1.544727722E1,-3.187890747E1,3.560683147E1
1.644324404E1,-9.973759460E-1,-8.956624603E0,-3.415447540E0,9.637487482E0
1.645326304E1,1.508862305E-1,-7.599247284E0,9.686057739E0,1.231223134E1
1.646328304E1,-2.578388214E0,-2.391187500E1,8.722361755E0,2.558330406E1
1.647330204E1,-7.253915405E0,-4.782913879E1,7.827672272E0,4.900528808E1
1.648332104E1,-9.105864258E0,-6.711697952E1,9.589807892E0,6.840738352E1
1.649334004E1,-9.779014435E0,-7.844811630E1,7.580985260E0,7.941792878E1
1.650335904E1,-6.832541656E0,-7.810727509E1,4.016447754E0,7.850835560E1
1.651337804E1,1.415007477E0,-6.289456009E1,-2.823278961E0,6.297379486E1
1.652339704E1,5.152136078E0,-3.741798889E1,-1.601923782E1,4.102762946E1
1.653341604E1,4.921615448E0,-2.471181152E1,-1.940055634E1,3.180058983E1
1.654343504E1,1.033151550E0,-2.227338226E1,-3.755540314E0,2.261139188E1
1.655345504E1,-1.676064606E0,-2.101030884E1,9.261241150E-1,2.109739263E1
1.656347404E1,-3.153641968E0,-1.855571320E1,6.001020813E-1,1.883135875E1
